t,ax,ay,az,gx,gy,gz,temp
0.0,-0.737060546875,0.662353515625,0.027099609375,-2.2900763358778624,8.122137404580153,-9.465648854961833,27.041176470588233
0.03685903549194336,-0.663330078125,0.695556640625,0.030029296875,-0.4732824427480916,2.786259541984733,5.1679389312977095,27.041176470588233
0.07298064231872559,-0.77392578125,0.588623046875,-0.027587890625,5.595419847328245,-1.2061068702290076,3.9770992366412212,27.041176470588233
0.10964298248291016,-0.699951171875,0.66796875,-0.00244140625,1.1297709923664123,1.1297709923664123,-3.8396946564885495,26.99411764705882
0.14681315422058105,-0.75439453125,0.63916015625,-0.000244140625,1.4961832061068703,1.1374045801526718,-1.0610687022900764,27.041176470588233
0.18312954902648926,-0.726806640625,0.63623046875,0.00146484375,0.7633587786259542,-0.10687022900763359,-0.8854961832061069,27.041176470588233
0.21948575973510742,-0.743408203125,0.63720703125,0.014892578125,1.6793893129770991,-0.030534351145038167,0.3969465648854962,26.94705882352941
0.2604553699493408,-0.7373046875,0.64013671875,0.010009765625,1.083969465648855,0.9923664122137404,-3.6717557251908395,27.041176470588233
0.29736924171447754,-0.748291015625,0.639892578125,0.007568359375,1.8778625954198473,-0.5572519083969466,0.7557251908396947,27.041176470588233
0.3359544277191162,-0.735107421875,0.644287109375,0.009521484375,1.16793893129771,0.48091603053435117,-2.618320610687023,26.99411764705882
0.37201786041259766,-0.739013671875,0.6455078125,0.01123046875,1.549618320610687,-0.13740458015267176,-0.5954198473282443,27.041176470588233
0.48079657554626465,-0.703857421875,0.65771484375,0.0185546875,-0.8854961832061069,-0.1984732824427481,-5.343511450381679,27.041176470588233
0.5174257755279541,-0.760986328125,0.62158203125,0.0048828125,2.50381679389313,-0.9389312977099237,5.419847328244275,27.135294117647057
0.554736852645874,-0.7333984375,0.64697265625,0.00341796875,1.4198473282442747,1.366412213740458,-5.061068702290076,27.135294117647057
0.5900495052337646,-0.737060546875,0.6376953125,0.01123046875,1.5267175572519085,-0.2366412213740458,0.6793893129770993,27.041176470588233
0.6273012161254883,-0.740234375,0.643310546875,0.013427734375,1.16793893129771,0.366412213740458,-2.3053435114503817,27.041176470588233
0.6690349578857422,-0.740966796875,0.63818359375,0.007568359375,1.5801526717557253,-0.2748091603053435,1.1068702290076335,27.135294117647057
0.7106306552886963,-0.734130859375,0.647216796875,0.004150390625,1.3206106870229009,0.46564885496183206,-3.015267175572519,27.041176470588233
0.74686598777771,-0.740478515625,0.641357421875,0.014892578125,2.1374045801526718,0.5190839694656488,0.7786259541984732,26.99411764705882
0.783693790435791,-0.731201171875,0.643798828125,0.022216796875,1.1374045801526718,1.2442748091603053,-3.9618320610687023,27.041176470588233
0.8186652660369873,-0.75341796875,0.637939453125,0.0126953125,2.1068702290076335,-0.5343511450381679,1.3893129770992367,27.088235294117645
0.8529739379882812,-0.737548828125,0.638671875,0.008544921875,1.450381679389313,-0.03816793893129771,-1.618320610687023,27.088235294117645
0.8888928890228271,-0.740234375,0.639404296875,0.00537109375,1.282442748091603,0.1450381679389313,-1.0763358778625953,26.9
0.9251646995544434,-0.743896484375,0.644287109375,0.00537109375,1.6488549618320612,-0.25190839694656486,-0.8625954198473282,27.088235294117645
0.9613206386566162,-0.739013671875,0.6455078125,0.015380859375,1.4045801526717556,0.2748091603053435,-1.4809160305343512,26.99411764705882
0.9968826770782471,-0.7421875,0.64111328125,0.01416015625,1.7633587786259541,-0.05343511450381679,-0.6793893129770993,27.135294117647057
1.0337560176849365,-0.742919921875,0.637939453125,0.000244140625,1.3511450381679388,0.0,-0.9236641221374046,26.94705882352941
1.0705838203430176,-0.739501953125,0.641845703125,0.008056640625,1.5725190839694656,-0.07633587786259542,-0.9541984732824428,27.088235294117645
1.107957363128662,-0.73681640625,0.6318359375,0.006591796875,1.3969465648854962,0.06870229007633588,-1.1068702290076335,27.088235294117645
1.1490092277526855,-0.7431640625,0.63916015625,0.009033203125,1.6412213740458015,-0.1984732824427481,-0.7099236641221374,27.041176470588233
1.1976077556610107,-0.735107421875,0.640869140625,0.01123046875,1.549618320610687,0.061068702290076333,-0.9541984732824428,27.088235294117645
1.23753023147583,-0.7392578125,0.637939453125,0.00341796875,1.5572519083969465,0.022900763358778626,-0.8854961832061069,27.041176470588233
1.2859506607055664,-0.73876953125,0.641357421875,0.01318359375,1.4427480916030535,-0.183206106870229,-0.6946564885496184,27.041176470588233
1.3267524242401123,-0.73974609375,0.640380859375,0.013671875,1.3358778625954197,0.061068702290076333,-1.534351145038168,27.088235294117645
1.3652398586273193,-0.7392578125,0.64599609375,0.00537109375,1.6488549618320612,0.015267175572519083,-0.24427480916030533,27.041176470588233
1.401878833770752,-0.734130859375,0.63916015625,0.010009765625,1.4427480916030535,0.09923664122137404,-1.6717557251908397,26.99411764705882
1.4365746974945068,-0.738037109375,0.643310546875,0.00341796875,1.6106870229007633,0.11450381679389313,-0.8702290076335878,27.041176470588233
1.4726965427398682,-0.7421875,0.644287109375,0.01220703125,1.4274809160305344,0.10687022900763359,-1.0381679389312977,27.041176470588233
1.5099124908447266,-0.741455078125,0.6435546875,0.0087890625,1.5114503816793894,0.12213740458015267,-1.1984732824427482,27.135294117647057
1.54567289352417,-0.73974609375,0.643310546875,0.00927734375,1.4961832061068703,-0.022900763358778626,-1.0,27.088235294117645
1.5808990001678467,-0.7373046875,0.64013671875,0.01123046875,1.5877862595419847,-0.015267175572519083,-1.1450381679389312,27.088235294117645
1.6169440746307373,-0.73583984375,0.641357421875,0.011474609375,1.3587786259541985,-4.793893129770993,7.67175572519084,27.041176470588233
1.654608964920044,-0.722412109375,0.654052734375,-0.014404296875,-0.25190839694656486,-2.1908396946564888,0.8015267175572519,27.041176470588233
1.691704511642456,-0.748046875,0.62744140625,0.021484375,2.969465648854962,-1.9618320610687023,1.366412213740458,27.041176470588233
1.7279667854309082,-0.716796875,0.6552734375,0.010009765625,-0.1297709923664122,2.145038167938931,-4.969465648854962,27.135294117647057
1.7645690441131592,-0.76806640625,0.633544921875,0.012451171875,2.9236641221374047,-1.0381679389312977,1.9083969465648856,27.088235294117645
1.8006157875061035,-0.730712890625,0.647705078125,0.016845703125,0.4122137404580153,1.0458015267175573,-3.83206106870229,26.99411764705882
1.8378338813781738,-0.751220703125,0.633056640625,0.01220703125,1.984732824427481,-1.6793893129770991,2.3206106870229006,27.041176470588233
1.8734509944915771,-0.740966796875,0.650390625,-0.00341796875,0.3435114503816794,-0.10687022900763359,-0.8625954198473282,27.041176470588233
1.909661054611206,-0.747314453125,0.64404296875,0.01025390625,2.4656488549618323,-1.0534351145038168,0.05343511450381679,27.041176470588233
1.9454092979431152,-0.725830078125,0.648681640625,0.01171875,0.5419847328244275,0.6946564885496184,-3.0229007633587788,26.94705882352941
1.981053352355957,-0.75390625,0.63232421875,0.010986328125,2.145038167938931,-0.4961832061068702,-0.183206106870229,27.088235294117645
2.017063617706299,-0.737548828125,0.646484375,0.005126953125,1.0,0.015267175572519083,-1.0229007633587786,27.135294117647057
2.0525927543640137,-0.741455078125,0.641845703125,0.01416015625,1.816793893129771,-0.22137404580152673,-2.2061068702290076,26.99411764705882
2.088209867477417,-0.73828125,0.645263671875,0.007080078125,1.1526717557251909,-0.0916030534351145,-0.17557251908396945,27.041176470588233
2.1237287521362305,-0.74462890625,0.63916015625,0.009521484375,1.7938931297709924,-0.42748091603053434,-0.916030534351145,27.041176470588233
2.1593239307403564,-0.732421875,0.63916015625,0.021240234375,1.0610687022900764,0.3053435114503817,-1.4732824427480915,27.088235294117645
2.194758415222168,-0.742431640625,0.634521484375,0.00830078125,1.6564885496183206,-0.07633587786259542,-1.2213740458015268,27.041176470588233
2.232473611831665,-0.73681640625,0.644287109375,0.013671875,1.3969465648854962,-0.1450381679389313,0.0,27.135294117647057
2.2686119079589844,-0.73974609375,0.642578125,0.004150390625,1.5419847328244274,0.21374045801526717,-2.33587786259542,26.99411764705882
2.3047587871551514,-0.735107421875,0.644287109375,0.0048828125,1.3893129770992367,-0.2595419847328244,0.33587786259541985,27.182352941176468
2.342395544052124,-0.737060546875,0.635986328125,0.01123046875,1.5038167938931297,-0.12213740458015267,-1.786259541984733,26.99411764705882
2.379638910293579,-0.739990234375,0.636962890625,0.0087890625,1.3587786259541985,-0.11450381679389313,-0.3893129770992366,26.99411764705882
2.41463303565979,-0.740234375,0.63818359375,0.00927734375,1.4274809160305344,0.20610687022900764,-2.045801526717557,27.041176470588233
2.4512178897857666,-0.742919921875,0.625244140625,-0.015869140625,1.6259541984732824,1.83206106870229,-5.297709923664122,27.088235294117645
2.487248182296753,-0.744873046875,0.6279296875,0.00927734375,2.4732824427480917,-1.1984732824427482,6.816793893129771,26.94705882352941
2.52392315864563,-0.718017578125,0.650390625,0.01513671875,0.1297709923664122,1.9312977099236641,-9.793893129770993,27.135294117647057
2.560051679611206,-0.753662109375,0.628662109375,0.011962890625,2.282442748091603,-2.0610687022900764,7.030534351145038,26.99411764705882
2.5958378314971924,-0.7265625,0.646484375,0.009033203125,0.7404580152671756,0.6259541984732825,-6.1679389312977095,27.041176470588233
2.6317484378814697,-0.748779296875,0.635986328125,0.0107421875,1.9923664122137406,-0.9694656488549618,3.648854961832061,27.135294117647057
2.668781280517578,-0.736083984375,0.64404296875,0.005615234375,1.0534351145038168,0.8473282442748091,-5.038167938931298,26.99411764705882
2.7043325901031494,-0.742919921875,0.637939453125,0.0087890625,1.9694656488549618,-2.5114503816793894,7.66412213740458,27.135294117647057
2.7408642768859863,-0.71923828125,0.646240234375,0.009765625,0.015267175572519083,0.7175572519083969,-6.6106870229007635,27.182352941176468
2.7767152786254883,-0.747802734375,0.637939453125,0.010986328125,2.9083969465648853,-1.9465648854961832,5.244274809160306,27.041176470588233
2.8133935928344727,-0.724609375,0.651611328125,0.013671875,0.5038167938931297,1.8931297709923665,-7.076335877862595,27.088235294117645
2.849529504776001,-0.757080078125,0.630615234375,0.018310546875,2.5877862595419847,-0.9847328244274809,4.099236641221374,27.135294117647057
2.8849892616271973,-0.73388671875,0.64892578125,0.0048828125,0.8015267175572519,0.7786259541984732,-4.656488549618321,27.135294117647057
2.9216716289520264,-0.75048828125,0.637451171875,0.00390625,2.0839694656488548,-0.3816793893129771,2.0916030534351147,27.135294117647057
2.958540439605713,-0.72900390625,0.64501953125,0.010986328125,0.9083969465648855,1.0381679389312977,-4.312977099236641,27.135294117647057
2.994209051132202,-0.745361328125,0.632568359375,0.00927734375,2.0610687022900764,-0.7709923664122137,2.7709923664122136,27.041176470588233
3.029651165008545,-0.726806640625,0.643310546875,0.013427734375,1.0610687022900764,0.816793893129771,-4.488549618320611,27.041176470588233
3.0656516551971436,-0.748046875,0.638916015625,0.0048828125,1.9770992366412214,-0.8320610687022901,2.572519083969466,27.135294117647057
3.102630138397217,-0.731201171875,0.644287109375,0.006103515625,1.1068702290076335,0.9312977099236641,-4.404580152671755,26.94705882352941
3.1385111808776855,-0.745849609375,0.635498046875,0.015625,1.8854961832061068,-0.8473282442748091,2.015267175572519,27.088235294117645
3.175506591796875,-0.73388671875,0.640625,0.0107421875,1.099236641221374,0.648854961832061,-3.3435114503816794,27.041176470588233
3.2117764949798584,-0.747314453125,0.638916015625,0.01123046875,1.9312977099236641,-0.35877862595419846,1.1984732824427482,27.041176470588233
3.247927188873291,-0.734619140625,0.642822265625,0.0107421875,1.2748091603053435,0.3816793893129771,-3.2061068702290076,27.088235294117645
3.283102512359619,-0.747314453125,0.635009765625,0.016845703125,1.7633587786259541,-0.44274809160305345,0.9694656488549618,27.041176470588233
3.319009780883789,-0.7314453125,0.64208984375,0.002685546875,1.3435114503816794,0.40458015267175573,-2.6030534351145036,27.041176470588233
3.3552656173706055,-0.740478515625,0.634521484375,0.00341796875,1.748091603053435,-0.2900763358778626,0.2366412213740458,27.135294117647057
3.3911447525024414,-0.739501953125,0.633544921875,0.00341796875,1.4122137404580153,0.24427480916030533,-2.2748091603053435,27.135294117647057
3.4273264408111572,-0.74658203125,0.63671875,0.008056640625,1.717557251908397,-0.3435114503816794,0.24427480916030533,27.041176470588233
3.463376522064209,-0.735595703125,0.645751953125,0.004150390625,1.3358778625954197,0.2595419847328244,-1.9618320610687023,27.135294117647057
3.4997191429138184,-0.739990234375,0.645751953125,0.01513671875,1.6412213740458015,-0.11450381679389313,-0.17557251908396945,27.041176470588233
3.5359044075012207,-0.7392578125,0.6435546875,0.01708984375,1.213740458015267,0.061068702290076333,-1.9236641221374047,27.135294117647057
3.5722432136535645,-0.74169921875,0.639892578125,0.013671875,1.4580152671755726,-0.11450381679389313,-0.3511450381679389,27.041176470588233
3.6072981357574463,-0.734375,0.639892578125,0.010498046875,1.5267175572519085,0.35877862595419846,-1.5954198473282444,27.041176470588233
3.64345645904541,-0.7451171875,0.637939453125,0.011962890625,1.6030534351145038,-0.20610687022900764,-0.6335877862595419,27.135294117647057
3.6800599098205566,-0.739501953125,0.645263671875,0.01025390625,1.3587786259541985,-0.11450381679389313,-0.31297709923664124,27.088235294117645
3.7166056632995605,-0.7392578125,0.64404296875,-0.010009765625,0.5954198473282443,0.5190839694656488,-0.8320610687022901,27.088235294117645
3.7523586750030518,-0.721435546875,0.637451171875,0.005615234375,1.8778625954198473,-2.4427480916030535,5.00763358778626,27.041176470588233
3.7888832092285156,-0.723876953125,0.638427734375,0.013427734375,0.5114503816793893,0.1984732824427481,-4.396946564885496,27.041176470588233
3.8237600326538086,-0.73828125,0.637939453125,0.002197265625,1.9389312977099236,-1.9083969465648856,2.122137404580153,27.088235294117645
3.859692096710205,-0.72705078125,0.642822265625,0.006591796875,0.9465648854961832,-0.40458015267175573,-2.2442748091603053,27.088235294117645
3.8952386379241943,-0.74462890625,0.64208984375,0.016845703125,2.0076335877862594,-1.2900763358778626,2.114503816793893,27.088235294117645
3.9312169551849365,-0.7265625,0.647705078125,0.006591796875,0.9923664122137404,0.46564885496183206,-3.6412213740458017,27.088235294117645
3.9669106006622314,-0.741455078125,0.631591796875,0.01171875,1.8473282442748091,-1.0305343511450382,2.4885496183206106,27.088235294117645
4.002829074859619,-0.73291015625,0.64208984375,0.012451171875,1.16793893129771,0.6106870229007634,-3.2290076335877864,27.088235294117645
4.0386528968811035,-0.74267578125,0.63720703125,0.009521484375,1.8091603053435115,-0.1297709923664122,0.5801526717557252,27.041176470588233
4.0739288330078125,-0.73681640625,0.650390625,0.004638671875,1.3893129770992367,0.29770992366412213,-2.0610687022900764,27.041176470588233
4.109638214111328,-0.737548828125,0.63427734375,0.021484375,1.7786259541984732,-0.06870229007633588,0.3969465648854962,27.135294117647057
4.146930932998657,-0.73681640625,0.639892578125,0.00390625,1.2748091603053435,0.2595419847328244,-2.5267175572519083,27.088235294117645
4.183609962463379,-0.74560546875,0.63623046875,0.005859375,1.748091603053435,-0.061068702290076333,0.37404580152671757,27.135294117647057
4.219545841217041,-0.740966796875,0.64208984375,0.0048828125,1.4351145038167938,0.22900763358778625,-1.9312977099236641,27.041176470588233
4.255384922027588,-0.73876953125,0.640625,0.007568359375,1.5877862595419847,0.08396946564885496,-0.7862595419847328,27.135294117647057
4.2921671867370605,-0.73828125,0.643310546875,0.001953125,1.366412213740458,0.19083969465648856,-1.3740458015267176,27.135294117647057
4.327998638153076,-0.739990234375,0.63818359375,-0.00146484375,1.6412213740458015,-0.21374045801526717,-0.2748091603053435,27.041176470588233
4.36433219909668,-0.739990234375,0.635986328125,0.01806640625,1.2671755725190839,0.1450381679389313,-1.8854961832061068,27.182352941176468
4.399454832077026,-0.74267578125,0.635986328125,0.016357421875,1.5572519083969465,0.0,-0.46564885496183206,27.041176470588233
4.43549656867981,-0.736572265625,0.647216796875,0.010986328125,1.3358778625954197,0.1297709923664122,-1.2748091603053435,27.135294117647057
4.471790552139282,-0.74169921875,0.64208984375,0.016357421875,1.3740458015267176,0.7251908396946565,-3.2290076335877864,27.088235294117645
4.508734941482544,-0.748779296875,0.64111328125,0.008056640625,1.6946564885496183,-0.25190839694656486,1.5038167938931297,27.135294117647057
4.545106649398804,-0.731201171875,0.64306640625,0.011962890625,1.1984732824427482,0.816793893129771,-3.984732824427481,26.99411764705882
4.580700397491455,-0.739013671875,0.636474609375,0.018310546875,1.8549618320610688,-0.16793893129770993,1.5954198473282444,27.041176470588233
4.615938186645508,-0.7392578125,0.645751953125,0.01025390625,1.1221374045801527,0.732824427480916,-3.480916030534351,27.135294117647057
4.651864528656006,-0.74462890625,0.63916015625,0.017822265625,1.8396946564885497,-1.8244274809160306,8.732824427480915,27.041176470588233
4.687935829162598,-0.69921875,0.641357421875,0.0,-0.5419847328244275,-0.5648854961832062,-5.763358778625954,27.135294117647057
4.724755525588989,-0.751220703125,0.617919921875,0.019287109375,3.1526717557251906,-1.6870229007633588,3.2595419847328246,27.041176470588233
4.760860443115234,-0.721435546875,0.6513671875,0.017578125,0.2900763358778626,1.6106870229007633,-4.717557251908397,27.182352941176468
4.79644775390625,-0.758544921875,0.632080078125,0.009033203125,2.480916030534351,-0.9618320610687023,0.9083969465648855,27.088235294117645
4.831864833831787,-0.731201171875,0.643310546875,0.005859375,0.5419847328244275,0.6335877862595419,-2.595419847328244,27.135294117647057
4.867737531661987,-0.748291015625,0.635986328125,-0.0009765625,2.0381679389312977,-0.6641221374045801,4.1679389312977095,27.041176470588233
4.904951095581055,-0.69482421875,0.6484375,0.003173828125,-0.3816793893129771,-0.7633587786259542,-3.267175572519084,27.088235294117645
4.9422690868377686,-0.762451171875,0.636962890625,0.0009765625,2.2061068702290076,-1.1145038167938932,2.5419847328244276,27.041176470588233
4.977344512939453,-0.73046875,0.644287109375,0.005859375,0.9847328244274809,0.5114503816793893,-3.2977099236641223,27.088235294117645
5.013653039932251,-0.7451171875,0.6337890625,-0.0009765625,1.7557251908396947,-0.3893129770992366,-0.6335877862595419,27.041176470588233
5.050024509429932,-0.734130859375,0.64306640625,0.001220703125,1.183206106870229,0.35877862595419846,-1.083969465648855,27.135294117647057
5.085376024246216,-0.74560546875,0.633056640625,0.012451171875,2.0,-0.5648854961832062,-0.07633587786259542,27.182352941176468
5.122215509414673,-0.73193359375,0.64599609375,0.011474609375,1.0687022900763359,0.48091603053435117,-2.312977099236641,27.041176470588233
5.158456563949585,-0.74658203125,0.641357421875,0.01708984375,1.7251908396946565,-0.31297709923664124,-0.7175572519083969,27.088235294117645
5.199933052062988,-0.732177734375,0.638916015625,0.007568359375,1.16793893129771,0.31297709923664124,-1.2900763358778626,27.041176470588233
5.234030485153198,-0.7373046875,0.641357421875,0.016357421875,1.8015267175572518,0.0,-1.381679389312977,27.041176470588233
5.267787218093872,-0.7392578125,0.637451171875,0.008056640625,1.3511450381679388,0.10687022900763359,-0.6793893129770993,27.135294117647057
5.303526163101196,-0.74267578125,0.63134765625,0.0078125,1.7099236641221374,-0.015267175572519083,-1.450381679389313,27.088235294117645
5.340396881103516,-0.74072265625,0.644287109375,0.010498046875,1.2595419847328244,0.007633587786259542,-0.3053435114503817,27.135294117647057
5.381177663803101,-0.73681640625,0.63623046875,0.002685546875,1.5190839694656488,-0.04580152671755725,-1.297709923664122,27.041176470588233
5.416035890579224,-0.73876953125,0.643798828125,0.009521484375,1.4045801526717556,0.061068702290076333,-0.6717557251908397,27.088235294117645
5.452122926712036,-0.735595703125,0.641845703125,0.018310546875,1.534351145038168,0.2748091603053435,-1.6641221374045803,27.088235294117645
5.488390207290649,-0.736083984375,0.63671875,0.019775390625,1.5190839694656488,-0.04580152671755725,-0.4351145038167939,27.135294117647057
5.523922920227051,-0.7421875,0.63818359375,0.01171875,1.297709923664122,0.22137404580152673,-1.2213740458015268,27.088235294117645
5.560543537139893,-0.740234375,0.6416015625,0.014892578125,1.5038167938931297,-0.030534351145038167,-0.7938931297709924,27.135294117647057
5.59421181678772,-0.747314453125,0.637451171875,0.011474609375,1.5725190839694656,0.21374045801526717,-1.1755725190839694,26.99411764705882
5.629178285598755,-0.739990234375,0.638671875,0.005126953125,1.5419847328244274,0.0,-0.7099236641221374,27.135294117647057
5.664391040802002,-0.7373046875,0.642333984375,0.002197265625,1.3511450381679388,0.06870229007633588,-1.4580152671755726,27.22941176470588
5.700498819351196,-0.73486328125,0.640380859375,0.00927734375,1.5419847328244274,-0.06870229007633588,-0.6030534351145038,27.135294117647057
5.736269950866699,-0.735595703125,0.63916015625,0.00634765625,1.4732824427480915,-0.08396946564885496,-1.3206106870229009,26.99411764705882
5.772796630859375,-0.741455078125,0.64111328125,0.014892578125,1.5114503816793894,-0.007633587786259542,-0.5572519083969466,27.135294117647057
5.80633282661438,-0.738525390625,0.6416015625,0.011962890625,1.6641221374045803,0.08396946564885496,-1.1984732824427482,27.041176470588233
5.84013295173645,-0.73681640625,0.643798828125,0.00244140625,1.6106870229007633,0.08396946564885496,-0.6641221374045801,27.041176470588233
5.875527858734131,-0.734375,0.641357421875,0.00146484375,1.5572519083969465,0.17557251908396945,-1.2595419847328244,27.041176470588233
5.911633491516113,-0.739990234375,0.6376953125,0.011474609375,1.4427480916030535,-0.030534351145038167,-0.9618320610687023,27.041176470588233
5.9480414390563965,-0.737548828125,0.639404296875,0.010986328125,1.5267175572519085,0.022900763358778626,-1.282442748091603,27.182352941176468
5.98476505279541,-0.739990234375,0.63623046875,0.013427734375,1.534351145038168,0.22900763358778625,-1.0610687022900764,27.088235294117645
6.020857095718384,-0.740234375,0.635498046875,0.00537109375,1.5572519083969465,0.015267175572519083,1.5954198473282444,27.088235294117645
6.06022047996521,-0.708984375,0.648681640625,-0.002197265625,0.549618320610687,0.35877862595419846,-3.8702290076335877,27.041176470588233
6.094722509384155,-0.74365234375,0.6318359375,0.00244140625,2.5877862595419847,-1.6641221374045803,5.32824427480916,27.22941176470588
6.130746841430664,-0.718994140625,0.64794921875,0.01123046875,0.13740458015267176,0.9083969465648855,-6.320610687022901,27.135294117647057
6.1668760776519775,-0.7568359375,0.640380859375,0.007568359375,2.450381679389313,-1.7633587786259541,3.6259541984732824,27.182352941176468
6.203878164291382,-0.72509765625,0.64990234375,0.004150390625,0.6335877862595419,0.6259541984732825,-4.0,27.135294117647057
6.23942494392395,-0.7490234375,0.6396484375,0.01318359375,2.183206106870229,-0.9694656488549618,1.8549618320610688,27.088235294117645
6.275752305984497,-0.720703125,0.642822265625,0.0087890625,0.5725190839694656,2.030534351145038,-8.290076335877863,27.182352941176468
6.312201261520386,-0.755859375,0.631591796875,0.002197265625,2.931297709923664,-0.7633587786259542,4.511450381679389,27.135294117647057
6.348335266113281,-0.71923828125,0.64794921875,0.017822265625,0.6641221374045801,1.0305343511450382,-3.8702290076335877,27.088235294117645
6.3878562450408936,-0.74658203125,0.635986328125,0.009521484375,2.015267175572519,-0.9618320610687023,-0.04580152671755725,27.041176470588233
6.430160760879517,-0.732666015625,0.6396484375,0.009765625,1.1068702290076335,-0.5114503816793893,0.42748091603053434,27.182352941176468
6.470815420150757,-0.73974609375,0.64208984375,0.015625,1.4885496183206106,0.26717557251908397,-3.068702290076336,27.135294117647057
6.5113136768341064,-0.7431640625,0.64013671875,0.0146484375,1.450381679389313,-0.22137404580152673,1.7709923664122138,27.088235294117645
6.555077314376831,-0.740966796875,0.644287109375,0.014404296875,1.1984732824427482,0.8091603053435115,-3.404580152671756,27.041176470588233
6.591396808624268,-0.740966796875,0.637939453125,0.01611328125,1.6030534351145038,-0.1450381679389313,0.5725190839694656,27.182352941176468
6.627485513687134,-0.742431640625,0.640869140625,0.010009765625,1.4885496183206106,0.3511450381679389,-2.213740458015267,27.182352941176468
6.663730144500732,-0.741455078125,0.640625,0.010986328125,1.4198473282442747,-0.19083969465648856,0.061068702290076333,27.088235294117645
6.699735164642334,-0.744873046875,0.645751953125,0.009033203125,1.5038167938931297,0.16030534351145037,-2.198473282442748,27.088235294117645
6.735903978347778,-0.73828125,0.641845703125,0.005126953125,1.5877862595419847,-0.12213740458015267,0.015267175572519083,27.22941176470588
6.771689176559448,-0.736328125,0.638427734375,0.0068359375,1.4885496183206106,0.12213740458015267,-1.83206106870229,27.088235294117645
6.808135986328125,-0.73828125,0.64501953125,0.00830078125,1.5267175572519085,-0.22900763358778625,-0.33587786259541985,27.135294117647057
6.843622922897339,-0.740478515625,0.636474609375,0.009521484375,1.5267175572519085,0.20610687022900764,-1.4045801526717556,27.135294117647057
6.8797926902771,-0.7421875,0.632568359375,0.012939453125,1.5190839694656488,-0.10687022900763359,-0.3816793893129771,27.182352941176468
6.915454626083374,-0.738037109375,0.6435546875,0.005615234375,1.366412213740458,0.12213740458015267,-1.534351145038168,27.088235294117645
6.951866865158081,-0.73876953125,0.6416015625,0.00537109375,1.5114503816793894,-0.0916030534351145,-0.4351145038167939,27.182352941176468
6.98856782913208,-0.736083984375,0.6416015625,0.010009765625,1.702290076335878,0.022900763358778626,-1.251908396946565,27.182352941176468
7.024713754653931,-0.739013671875,0.642333984375,0.00927734375,1.4732824427480915,-0.0916030534351145,-0.07633587786259542,27.182352941176468
7.060899496078491,-0.733154296875,0.63916015625,0.005859375,1.0534351145038168,0.007633587786259542,-2.267175572519084,27.088235294117645
7.0967957973480225,-0.743896484375,0.640380859375,0.012939453125,1.5648854961832062,-0.4351145038167939,0.35877862595419846,27.22941176470588
7.132954120635986,-0.74560546875,0.642578125,0.013671875,1.5572519083969465,-0.07633587786259542,-1.0076335877862594,27.182352941176468
7.170658111572266,-0.735107421875,0.64404296875,0.019287109375,1.5038167938931297,0.183206106870229,-2.267175572519084,27.135294117647057
7.2058093547821045,-0.738525390625,0.63671875,0.00927734375,1.4427480916030535,0.06870229007633588,-0.5038167938931297,27.135294117647057
7.241159677505493,-0.736328125,0.643798828125,0.008544921875,1.2900763358778626,1.0458015267175573,-4.198473282442748,27.182352941176468
7.276865243911743,-0.750244140625,0.639404296875,0.021240234375,2.030534351145038,0.7862595419847328,0.022900763358778626,27.041176470588233
7.311479568481445,-0.741455078125,0.63916015625,0.01220703125,1.3282442748091603,0.8244274809160306,-3.4122137404580153,27.041176470588233
7.347048044204712,-0.7431640625,0.639404296875,0.007568359375,1.6030534351145038,0.12213740458015267,0.8778625954198473,27.088235294117645
7.383159637451172,-0.7353515625,0.6416015625,0.010498046875,1.381679389312977,0.6259541984732825,-2.5267175572519083,27.135294117647057
7.419680595397949,-0.73974609375,0.636474609375,0.01171875,1.6870229007633588,-0.19083969465648856,0.2595419847328244,27.182352941176468
7.455539703369141,-0.737060546875,0.643798828125,0.02001953125,1.3206106870229009,0.6564885496183206,-2.763358778625954,27.088235294117645
7.49165415763855,-0.74072265625,0.63525390625,0.0068359375,1.5648854961832062,-0.2595419847328244,0.4580152671755725,27.041176470588233
7.527795076370239,-0.73681640625,0.63623046875,0.010009765625,1.2290076335877862,0.31297709923664124,-2.0839694656488548,27.182352941176468
7.566441535949707,-0.74072265625,0.63916015625,0.010498046875,1.6564885496183206,-0.10687022900763359,-0.648854961832061,27.135294117647057
7.6039135456085205,-0.737548828125,0.642578125,0.011474609375,1.3740458015267176,0.1984732824427481,-1.0,27.135294117647057
7.641594648361206,-0.73828125,0.633056640625,0.006591796875,1.6717557251908397,-0.05343511450381679,-1.0458015267175573,27.088235294117645
7.679594039916992,-0.737548828125,0.642578125,0.006591796875,1.4427480916030535,0.04580152671755725,-0.9847328244274809,27.088235294117645
7.71696662902832,-0.736572265625,0.640869140625,0.010498046875,1.5419847328244274,0.05343511450381679,-1.3282442748091603,27.22941176470588
7.7549073696136475,-0.736572265625,0.642333984375,0.010986328125,1.3587786259541985,0.09923664122137404,-0.45038167938931295,27.135294117647057
7.790185928344727,-0.740234375,0.6357421875,0.013916015625,1.381679389312977,0.6106870229007634,-2.83206106870229,27.135294117647057
7.8253843784332275,-0.73974609375,0.63671875,0.005615234375,1.7938931297709924,-0.4961832061068702,1.4198473282442747,27.041176470588233
7.862697124481201,-0.739013671875,0.639892578125,0.01171875,1.16793893129771,0.37404580152671757,-3.1603053435114505,27.182352941176468
7.898239850997925,-0.74267578125,0.643798828125,0.000244140625,1.816793893129771,-0.3282442748091603,0.9923664122137404,27.182352941176468
7.932661771774292,-0.739501953125,0.64306640625,0.009521484375,1.381679389312977,0.4198473282442748,-2.2900763358778624,27.135294117647057
7.967677354812622,-0.7451171875,0.638671875,0.011474609375,1.8396946564885497,-0.13740458015267176,0.29770992366412213,27.135294117647057
8.002240419387817,-0.73486328125,0.640625,0.00927734375,1.1450381679389312,0.6412213740458015,-2.519083969465649,27.088235294117645
8.038597822189331,-0.74755859375,0.6357421875,0.015380859375,1.6641221374045803,-0.3816793893129771,0.45038167938931295,27.135294117647057
8.075109720230103,-0.7333984375,0.645263671875,0.00732421875,0.9083969465648855,1.2061068702290076,-5.603053435114504,27.041176470588233
8.110556840896606,-0.748046875,0.63232421875,0.004150390625,2.1526717557251906,-0.6870229007633588,4.358778625954199,27.135294117647057
8.146819591522217,-0.728515625,0.646240234375,0.016357421875,0.8473282442748091,1.3053435114503817,-5.9541984732824424,27.135294117647057
8.182786226272583,-0.744384765625,0.633056640625,0.005126953125,2.0229007633587788,-0.9541984732824428,3.5801526717557253,27.041176470588233
8.219424486160278,-0.730224609375,0.642578125,0.011474609375,1.0534351145038168,0.8854961832061069,-4.351145038167939,27.088235294117645
8.254899501800537,-0.74853515625,0.6376953125,0.017578125,2.0076335877862594,-0.6030534351145038,2.3740458015267176,27.041176470588233
8.291259288787842,-0.735595703125,0.63720703125,0.01318359375,1.0763358778625953,0.8625954198473282,-4.465648854961832,27.135294117647057
8.32697868347168,-0.747314453125,0.6357421875,0.010498046875,2.0839694656488548,-0.8396946564885496,2.4656488549618323,27.22941176470588
8.36418604850769,-0.7314453125,0.644775390625,0.009521484375,0.9007633587786259,0.7633587786259542,-3.816793893129771,27.088235294117645
8.401002168655396,-0.745849609375,0.632080078125,0.01611328125,2.0,-0.5190839694656488,1.5114503816793894,27.135294117647057
8.435108184814453,-0.735595703125,0.6396484375,-0.003662109375,1.213740458015267,0.6717557251908397,-3.282442748091603,27.135294117647057
8.469787120819092,-0.742919921875,0.64208984375,0.0048828125,2.0076335877862594,-0.25190839694656486,1.3893129770992367,27.135294117647057
8.506004095077515,-0.73095703125,0.637451171875,0.010009765625,1.0763358778625953,0.5190839694656488,-3.2519083969465647,27.135294117647057
8.541849136352539,-0.746337890625,0.6376953125,0.0068359375,1.8244274809160306,-0.549618320610687,0.9389312977099237,27.276470588235295
8.579237699508667,-0.7373046875,0.63916015625,-0.000244140625,1.2213740458015268,0.2748091603053435,-2.2442748091603053,27.088235294117645
8.615436315536499,-0.743408203125,0.638916015625,0.00830078125,1.8854961832061068,-0.2900763358778626,-0.12213740458015267,27.135294117647057
8.65140986442566,-0.73095703125,0.640380859375,0.002197265625,1.16793893129771,0.45038167938931295,-1.8396946564885497,27.135294117647057
8.687460660934448,-0.7392578125,0.64111328125,0.00390625,1.8931297709923665,-0.2824427480916031,0.015267175572519083,27.135294117647057
8.722427368164062,-0.73486328125,0.642333984375,0.01123046875,1.251908396946565,0.32061068702290074,-1.717557251908397,27.182352941176468
8.758307695388794,-0.7421875,0.642822265625,0.01318359375,1.7709923664122138,-0.12213740458015267,-0.11450381679389313,27.182352941176468
8.793665885925293,-0.7373046875,0.64111328125,0.015380859375,1.381679389312977,0.22137404580152673,-1.6946564885496183,27.088235294117645
8.83004117012024,-0.736328125,0.643310546875,0.013671875,1.5648854961832062,-0.2595419847328244,-0.3893129770992366,27.135294117647057
8.865590810775757,-0.73388671875,0.64013671875,0.008544921875,1.3129770992366412,0.2595419847328244,-1.4809160305343512,27.182352941176468
8.901326656341553,-0.743896484375,0.640869140625,0.007080078125,1.7328244274809161,-0.19083969465648856,-0.7862595419847328,27.088235294117645
8.937345504760742,-0.735595703125,0.64404296875,0.00439453125,1.3435114503816794,0.183206106870229,-1.2595419847328244,27.22941176470588
8.973354578018188,-0.742919921875,0.63916015625,0.007080078125,1.6488549618320612,0.022900763358778626,-0.7786259541984732,27.135294117647057
9.010130167007446,-0.74072265625,0.640380859375,0.010986328125,1.5038167938931297,0.12213740458015267,-1.1297709923664123,27.135294117647057
9.045259475708008,-0.736572265625,0.640869140625,0.011474609375,1.6564885496183206,-0.16793893129770993,-0.9465648854961832,27.22941176470588
9.081418752670288,-0.739990234375,0.63525390625,0.009521484375,1.3587786259541985,0.04580152671755725,-1.0534351145038168,27.135294117647057
9.117608070373535,-0.739013671875,0.638427734375,0.006103515625,1.717557251908397,-0.061068702290076333,-0.8549618320610687,27.135294117647057
9.154068946838379,-0.735595703125,0.64501953125,0.006591796875,1.381679389312977,0.03816793893129771,-0.9236641221374046,27.135294117647057
9.190417289733887,-0.74267578125,0.64111328125,0.010986328125,1.4809160305343512,0.08396946564885496,-1.0763358778625953,27.088235294117645
9.226733684539795,-0.739501953125,0.64208984375,0.0107421875,1.5419847328244274,0.061068702290076333,-0.8931297709923665,27.135294117647057
9.26358151435852,-0.743408203125,0.642578125,0.01025390625,1.6793893129770991,-0.07633587786259542,-1.1297709923664123,27.041176470588233
9.303731679916382,-0.741455078125,0.64111328125,0.01318359375,1.3969465648854962,-0.19083969465648856,-0.7404580152671756,27.182352941176468
9.33791470527649,-0.732177734375,0.63720703125,0.004638671875,1.4732824427480915,0.10687022900763359,-1.3358778625954197,27.182352941176468
9.372968196868896,-0.737548828125,0.6357421875,0.010986328125,1.4885496183206106,0.08396946564885496,-0.7709923664122137,27.182352941176468
9.40968132019043,-0.74267578125,0.63916015625,0.00634765625,1.4809160305343512,0.0,-1.1450381679389312,27.182352941176468
9.446345806121826,-0.7421875,0.64306640625,0.007080078125,1.6412213740458015,-0.030534351145038167,-0.7022900763358778,27.135294117647057
9.48285436630249,-0.73583984375,0.639404296875,0.003173828125,1.5725190839694656,-0.007633587786259542,-1.3129770992366412,27.135294117647057
9.518920183181763,-0.740234375,0.638916015625,0.011474609375,1.3435114503816794,-0.04580152671755725,-0.5267175572519084,27.041176470588233
9.555160284042358,-0.73876953125,0.63623046875,0.013671875,1.4580152671755726,0.0916030534351145,-1.4961832061068703,27.088235294117645
9.59159517288208,-0.735107421875,0.640625,0.00830078125,1.5954198473282444,-0.13740458015267176,-0.4122137404580153,27.182352941176468
9.628230810165405,-0.741455078125,0.638671875,0.0087890625,1.381679389312977,0.061068702290076333,-1.3206106870229009,27.088235294117645
9.663400173187256,-0.736572265625,0.634765625,0.013427734375,1.7404580152671756,0.0916030534351145,-0.7480916030534351,27.088235294117645
9.699659585952759,-0.738037109375,0.634033203125,0.00244140625,1.3053435114503817,0.4732824427480916,-3.0763358778625953,27.135294117647057
9.735786199569702,-0.7431640625,0.636962890625,0.0078125,2.1068702290076335,-0.3969465648854962,1.1450381679389312,27.22941176470588
9.773088932037354,-0.730224609375,0.6376953125,0.00537109375,1.0076335877862594,0.26717557251908397,-1.1068702290076335,27.22941176470588
9.813395023345947,-0.744140625,0.645263671875,0.009765625,1.7557251908396947,0.5572519083969466,-3.931297709923664,27.135294117647057
9.852967739105225,-0.7392578125,0.63427734375,0.010009765625,1.6106870229007633,-0.24427480916030533,1.4885496183206106,27.135294117647057
9.892810106277466,-0.740478515625,0.64013671875,0.005615234375,1.2366412213740459,0.4351145038167939,-2.8931297709923665,27.135294117647057
9.934633731842041,-0.7412109375,0.63818359375,0.014404296875,1.8244274809160306,-0.20610687022900764,0.19083969465648856,27.135294117647057
9.972571611404419,-0.734130859375,0.6435546875,0.00390625,1.0458015267175573,0.2366412213740458,-1.6030534351145038,27.135294117647057
10.00949215888977,-0.74462890625,0.641845703125,0.012939453125,1.7404580152671756,-0.4122137404580153,0.12213740458015267,27.182352941176468
10.044016361236572,-0.736083984375,0.639892578125,0.015869140625,1.1755725190839694,0.16030534351145037,-2.053435114503817,27.135294117647057
10.081488370895386,-0.743408203125,0.63330078125,-0.0029296875,1.2671755725190839,-0.03816793893129771,-1.5725190839694656,27.182352941176468
10.118302345275879,-0.73974609375,0.631591796875,0.01416015625,1.5190839694656488,-0.33587786259541985,1.083969465648855,27.135294117647057
10.154908180236816,-0.729736328125,0.64208984375,0.013671875,1.5267175572519085,0.061068702290076333,-2.7938931297709924,27.088235294117645
10.190423250198364,-0.743408203125,0.64013671875,0.01025390625,1.6488549618320612,-0.3893129770992366,0.4198473282442748,27.22941176470588
10.226379632949829,-0.7373046875,0.641845703125,0.015380859375,1.3587786259541985,0.24427480916030533,-2.0381679389312977,27.088235294117645
10.262603759765625,-0.74560546875,0.637451171875,0.016357421875,1.5572519083969465,-0.25190839694656486,0.1297709923664122,27.088235294117645
10.299123525619507,-0.739501953125,0.64111328125,0.000732421875,1.3740458015267176,0.3893129770992366,-2.0610687022900764,27.135294117647057
10.335734605789185,-0.742919921875,0.63427734375,0.005615234375,1.6259541984732824,-0.22137404580152673,0.5343511450381679,27.182352941176468
10.372657299041748,-0.731201171875,0.641357421875,0.010498046875,1.4580152671755726,0.2595419847328244,-2.282442748091603,27.135294117647057
10.409629106521606,-0.7470703125,0.638916015625,0.008544921875,1.5725190839694656,-0.15267175572519084,-0.25190839694656486,27.135294117647057
10.445275068283081,-0.740234375,0.64208984375,0.01123046875,1.4045801526717556,0.2595419847328244,-1.7633587786259541,27.22941176470588
10.482748031616211,-0.743408203125,0.63720703125,0.005126953125,1.6106870229007633,-0.16793893129770993,-0.1297709923664122,27.135294117647057
10.518707513809204,-0.73828125,0.64306640625,0.00390625,1.4732824427480915,0.3282442748091603,-2.267175572519084,27.182352941176468
10.555482387542725,-0.735107421875,0.630859375,0.017578125,1.5725190839694656,-0.04580152671755725,-0.06870229007633588,27.22941176470588
10.589929819107056,-0.73876953125,0.64013671875,0.015625,1.3893129770992367,0.2366412213740458,-1.6564885496183206,27.276470588235295
10.625864505767822,-0.742919921875,0.637939453125,0.007080078125,1.3969465648854962,-0.09923664122137404,-0.2824427480916031,27.22941176470588
10.662618160247803,-0.739990234375,0.642822265625,0.002685546875,1.4885496183206106,0.16793893129770993,-1.6793893129770991,27.088235294117645
10.69709849357605,-0.74365234375,0.63134765625,0.006103515625,1.6030534351145038,-0.11450381679389313,-0.13740458015267176,27.135294117647057
10.731781005859375,-0.73681640625,0.6455078125,0.01220703125,1.4732824427480915,0.015267175572519083,-1.4961832061068703,27.135294117647057
10.76876449584961,-0.740234375,0.63916015625,0.00537109375,1.618320610687023,-0.12213740458015267,-0.5419847328244275,27.088235294117645
10.804208993911743,-0.73876953125,0.6357421875,0.005126953125,1.4809160305343512,0.31297709923664124,-1.7786259541984732,27.182352941176468
10.839059591293335,-0.736328125,0.64306640625,0.005126953125,1.5572519083969465,0.05343511450381679,-0.5038167938931297,27.135294117647057
10.872920751571655,-0.739990234375,0.642822265625,0.000732421875,1.5725190839694656,0.22137404580152673,-1.4274809160305344,27.182352941176468
10.909205913543701,-0.734130859375,0.635498046875,0.01123046875,1.450381679389313,-0.09923664122137404,-0.7251908396946565,27.22941176470588
10.94610047340393,-0.740966796875,0.641357421875,0.011474609375,1.5190839694656488,-0.12213740458015267,-1.366412213740458,27.135294117647057
10.981778144836426,-0.737060546875,0.638427734375,0.00927734375,1.4732824427480915,0.0,-0.816793893129771,27.182352941176468
11.018372535705566,-0.73681640625,0.644775390625,0.01806640625,1.450381679389313,0.022900763358778626,-1.4809160305343512,27.182352941176468
11.054687976837158,-0.743408203125,0.638916015625,0.006103515625,1.4580152671755726,-0.08396946564885496,-0.5190839694656488,27.22941176470588
11.091074705123901,-0.7392578125,0.634521484375,0.01318359375,1.3282442748091603,0.015267175572519083,-1.3511450381679388,27.135294117647057
11.128241062164307,-0.74267578125,0.6376953125,0.012939453125,1.5114503816793894,-0.03816793893129771,-0.6030534351145038,27.041176470588233
11.164432764053345,-0.7373046875,0.638916015625,0.011474609375,1.4580152671755726,0.09923664122137404,-1.1145038167938932,27.088235294117645
11.200206756591797,-0.74462890625,0.642578125,0.00439453125,1.5267175572519085,-0.06870229007633588,-1.0610687022900764,27.182352941176468
11.23634958267212,-0.74267578125,0.6416015625,0.009765625,1.4885496183206106,0.07633587786259542,-1.1068702290076335,27.182352941176468
11.272537231445312,-0.7421875,0.64306640625,-0.002197265625,1.633587786259542,-0.030534351145038167,-0.9770992366412213,27.135294117647057
11.308441162109375,-0.741455078125,0.633056640625,0.001708984375,1.4427480916030535,0.09923664122137404,-1.1755725190839694,27.182352941176468
11.345144987106323,-0.742431640625,0.64111328125,0.006591796875,1.4427480916030535,0.05343511450381679,-0.8931297709923665,27.135294117647057
11.381576538085938,-0.744873046875,0.63818359375,0.014892578125,1.4732824427480915,0.07633587786259542,-0.9389312977099237,27.22941176470588
11.416625738143921,-0.73828125,0.641845703125,0.002197265625,1.5648854961832062,-0.15267175572519084,-0.9770992366412213,27.135294117647057
11.453613996505737,-0.743408203125,0.64013671875,0.01123046875,1.4885496183206106,0.06870229007633588,-0.7938931297709924,27.135294117647057
11.489923477172852,-0.73681640625,0.639892578125,-0.00048828125,1.5725190839694656,0.05343511450381679,-1.015267175572519,27.182352941176468
11.526707410812378,-0.738037109375,0.63525390625,0.008056640625,1.4809160305343512,-0.1297709923664122,-0.9847328244274809,27.182352941176468
11.563337802886963,-0.736083984375,0.64453125,0.01123046875,1.5419847328244274,0.04580152671755725,-1.0916030534351144,27.135294117647057
11.602607011795044,-0.737548828125,0.632080078125,0.016357421875,1.4427480916030535,-0.06870229007633588,-0.8702290076335878,27.182352941176468
11.642110347747803,-0.737548828125,0.63818359375,0.004150390625,1.534351145038168,0.1984732824427481,-1.183206106870229,27.135294117647057
11.683992147445679,-0.7392578125,0.64404296875,0.00830078125,1.534351145038168,0.21374045801526717,-0.9923664122137404,27.182352941176468
11.724043607711792,-0.74072265625,0.63720703125,0.00537109375,1.4351145038167938,-0.07633587786259542,-0.9465648854961832,27.088235294117645
11.764203310012817,-0.73583984375,0.644287109375,0.012451171875,1.4961832061068703,0.007633587786259542,-1.083969465648855,27.22941176470588
11.801477193832397,-0.733154296875,0.630126953125,-0.001708984375,1.4045801526717556,0.11450381679389313,-0.9923664122137404,27.276470588235295
11.837994575500488,-0.7373046875,0.63671875,0.004638671875,1.4427480916030535,0.030534351145038167,-0.6946564885496184,27.135294117647057
11.874490022659302,-0.74072265625,0.6416015625,0.013916015625,1.4580152671755726,0.06870229007633588,-0.9389312977099237,27.088235294117645
11.910958051681519,-0.73681640625,0.63916015625,0.021240234375,1.5801526717557253,0.05343511450381679,-0.9847328244274809,27.135294117647057
11.946902751922607,-0.736328125,0.639892578125,0.01953125,1.4809160305343512,-0.07633587786259542,-0.8549618320610687,27.182352941176468
11.983380794525146,-0.73828125,0.64501953125,0.005615234375,1.5419847328244274,0.03816793893129771,-1.0458015267175573,27.135294117647057
12.019466400146484,-0.7470703125,0.639892578125,0.015625,1.465648854961832,-0.0916030534351145,-1.0916030534351144,27.135294117647057
12.053874015808105,-0.7421875,0.639892578125,0.009765625,1.534351145038168,0.16793893129770993,-0.8015267175572519,27.182352941176468
12.093951940536499,-0.74072265625,0.641845703125,0.014404296875,1.4809160305343512,0.12213740458015267,-1.2442748091603053,27.182352941176468
12.129350423812866,-0.73388671875,0.640869140625,0.009521484375,1.4580152671755726,-0.09923664122137404,-0.8778625954198473,27.182352941176468
12.165066003799438,-0.7412109375,0.641357421875,0.01220703125,1.6564885496183206,0.16793893129770993,-1.2366412213740459,27.135294117647057
12.200801849365234,-0.739501953125,0.632080078125,0.0126953125,1.4274809160305344,0.15267175572519084,-1.1755725190839694,27.088235294117645
12.236441612243652,-0.741455078125,0.642822265625,0.01123046875,1.297709923664122,-0.09923664122137404,-1.083969465648855,27.135294117647057
12.272960186004639,-0.740966796875,0.638427734375,0.00244140625,1.4809160305343512,-0.09923664122137404,-0.8091603053435115,27.135294117647057
12.309019327163696,-0.741455078125,0.641357421875,0.004150390625,1.4351145038167938,0.1450381679389313,-1.1068702290076335,27.182352941176468
12.346045017242432,-0.738525390625,0.63818359375,0.015380859375,1.5190839694656488,0.16793893129770993,-0.8549618320610687,27.135294117647057
12.381706714630127,-0.736572265625,0.64208984375,0.002685546875,1.4274809160305344,-0.04580152671755725,-1.0381679389312977,27.182352941176468
12.41813063621521,-0.7353515625,0.63916015625,0.003662109375,1.5267175572519085,0.0916030534351145,-0.8244274809160306,27.276470588235295
12.452178478240967,-0.739013671875,0.6416015625,0.015380859375,1.618320610687023,0.17557251908396945,-1.0,27.041176470588233
12.488173484802246,-0.7392578125,0.638671875,0.007080078125,1.534351145038168,-0.05343511450381679,-0.9312977099236641,27.088235294117645
12.524823904037476,-0.746826171875,0.636962890625,0.011474609375,1.5725190839694656,0.030534351145038167,-1.16793893129771,27.182352941176468
12.561437129974365,-0.7392578125,0.636474609375,0.00830078125,1.5877862595419847,-0.07633587786259542,-0.7709923664122137,27.135294117647057
12.598303318023682,-0.739990234375,0.6416015625,0.01171875,1.4885496183206106,0.04580152671755725,-1.0458015267175573,27.22941176470588
12.634018421173096,-0.738525390625,0.640869140625,0.008056640625,1.534351145038168,-0.0916030534351145,-1.083969465648855,27.182352941176468
12.670750856399536,-0.741455078125,0.6376953125,0.010009765625,1.3740458015267176,-0.030534351145038167,-1.1068702290076335,27.22941176470588
12.707117795944214,-0.73828125,0.63671875,0.012939453125,1.534351145038168,-0.030534351145038167,-0.8320610687022901,27.182352941176468
12.743626356124878,-0.732177734375,0.634521484375,0.01171875,1.4580152671755726,0.03816793893129771,-1.099236641221374,27.182352941176468
12.780262231826782,-0.738525390625,0.6376953125,0.006591796875,1.534351145038168,0.09923664122137404,-0.7709923664122137,27.22941176470588
12.816284418106079,-0.742919921875,0.636962890625,0.008056640625,1.4732824427480915,0.04580152671755725,-1.16793893129771,27.22941176470588
12.852463006973267,-0.740234375,0.635498046875,0.011962890625,1.4427480916030535,-0.022900763358778626,-0.8778625954198473,27.22941176470588
12.888485193252563,-0.741455078125,0.64013671875,0.009521484375,1.5267175572519085,0.030534351145038167,-1.0381679389312977,27.182352941176468
12.926987648010254,-0.7412109375,0.63916015625,0.01220703125,1.3435114503816794,-0.030534351145038167,-0.7251908396946565,27.182352941176468
12.961354732513428,-0.736572265625,0.638916015625,0.0009765625,1.5038167938931297,0.0916030534351145,-0.916030534351145,27.088235294117645
12.997159957885742,-0.73876953125,0.636962890625,0.007568359375,1.4732824427480915,0.06870229007633588,-1.0458015267175573,27.182352941176468
13.03316879272461,-0.73388671875,0.637451171875,0.01171875,1.5648854961832062,-0.183206106870229,-0.6106870229007634,27.135294117647057
13.06861686706543,-0.74267578125,0.642333984375,0.006591796875,1.4351145038167938,0.07633587786259542,-1.251908396946565,27.22941176470588
13.105156421661377,-0.739013671875,0.639892578125,0.014404296875,1.4885496183206106,0.022900763358778626,-0.816793893129771,27.22941176470588
13.1413893699646,-0.738525390625,0.637939453125,0.0146484375,1.5190839694656488,0.12213740458015267,-1.2442748091603053,27.135294117647057
13.176949739456177,-0.73583984375,0.643310546875,0.01611328125,1.4885496183206106,-0.030534351145038167,-0.8015267175572519,27.135294117647057
13.217562198638916,-0.738525390625,0.641845703125,0.013916015625,1.4045801526717556,0.0,-1.0916030534351144,27.088235294117645
13.252248764038086,-0.74169921875,0.64208984375,0.00146484375,1.4961832061068703,0.17557251908396945,-0.8091603053435115,27.22941176470588
13.287871360778809,-0.735107421875,0.643310546875,0.01708984375,1.4732824427480915,0.07633587786259542,-1.0381679389312977,27.182352941176468
13.323818445205688,-0.74169921875,0.63525390625,0.01123046875,1.450381679389313,-0.05343511450381679,-0.37404580152671757,27.22941176470588
13.359687089920044,-0.73583984375,0.641357421875,0.0126953125,1.2900763358778626,0.015267175572519083,-1.2366412213740459,27.135294117647057
13.395920991897583,-0.74072265625,0.636962890625,0.007080078125,1.3969465648854962,-0.20610687022900764,-0.5801526717557252,27.22941176470588
13.431118249893188,-0.734130859375,0.64306640625,0.01513671875,1.534351145038168,0.22137404580152673,-1.1297709923664123,27.135294117647057
13.466403484344482,-0.73681640625,0.641845703125,0.015625,1.5419847328244274,0.03816793893129771,-1.0610687022900764,27.135294117647057
13.50248122215271,-0.740234375,0.641357421875,0.012451171875,1.549618320610687,-0.0916030534351145,-0.9923664122137404,27.182352941176468
13.539071083068848,-0.739013671875,0.6376953125,0.013671875,1.465648854961832,0.06870229007633588,-1.1908396946564885,27.088235294117645
13.574987888336182,-0.740966796875,0.637939453125,0.00390625,1.5725190839694656,-0.22137404580152673,-0.4198473282442748,27.088235294117645
13.611623764038086,-0.737548828125,0.638671875,0.0078125,1.3893129770992367,0.09923664122137404,-1.2671755725190839,27.088235294117645
13.648047685623169,-0.73779296875,0.641357421875,0.013671875,1.5267175572519085,0.09923664122137404,-0.8702290076335878,27.182352941176468
13.685272455215454,-0.740966796875,0.643798828125,0.012451171875,1.3969465648854962,0.10687022900763359,-1.1297709923664123,27.182352941176468
13.719980239868164,-0.743896484375,0.628662109375,0.01513671875,1.5801526717557253,-0.03816793893129771,-0.5190839694656488,27.182352941176468
13.756180047988892,-0.736083984375,0.6435546875,0.01025390625,1.3740458015267176,0.08396946564885496,-1.5648854961832062,27.182352941176468
13.793564796447754,-0.742919921875,0.6376953125,0.015625,1.6030534351145038,0.022900763358778626,-0.6870229007633588,27.182352941176468
13.828887224197388,-0.7373046875,0.63525390625,0.01025390625,1.534351145038168,0.1450381679389313,-1.4885496183206106,27.182352941176468
13.86498761177063,-0.73291015625,0.642578125,0.00537109375,1.6259541984732824,-0.22900763358778625,-0.4122137404580153,27.041176470588233
13.901697635650635,-0.73828125,0.640869140625,0.0078125,1.534351145038168,-0.04580152671755725,-0.7251908396946565,27.135294117647057
13.937093734741211,-0.734619140625,0.637451171875,0.010986328125,1.4580152671755726,0.21374045801526717,-1.8931297709923665,27.22941176470588
13.971868991851807,-0.736083984375,0.640625,0.005126953125,1.213740458015267,-1.9236641221374047,3.435114503816794,27.135294117647057
14.007449626922607,-0.734130859375,0.647705078125,0.01611328125,0.3435114503816794,0.4961832061068702,-1.7633587786259541,27.182352941176468
14.044126987457275,-0.74560546875,0.634765625,0.012451171875,1.9541984732824427,-0.9083969465648855,1.0687022900763359,27.182352941176468
14.081410646438599,-0.728515625,0.64404296875,0.02001953125,1.0687022900763359,0.5877862595419847,-3.2290076335877864,27.182352941176468
14.11801815032959,-0.7548828125,0.6357421875,0.008056640625,1.8549618320610688,-0.3435114503816794,0.5343511450381679,27.182352941176468
14.154364109039307,-0.733154296875,0.637451171875,0.005859375,1.2366412213740459,0.3511450381679389,-1.9465648854961832,27.323529411764707
14.190711736679077,-0.742431640625,0.642822265625,0.0068359375,1.7938931297709924,-0.06870229007633588,-0.5725190839694656,27.088235294117645
14.22624921798706,-0.7353515625,0.641845703125,0.010009765625,1.213740458015267,0.2595419847328244,-1.7786259541984732,27.182352941176468
14.261826992034912,-0.74267578125,0.63720703125,0.0107421875,1.7786259541984732,-0.4580152671755725,0.3511450381679389,27.135294117647057
14.298065900802612,-0.73486328125,0.63525390625,0.000732421875,1.2900763358778626,0.22137404580152673,-2.2595419847328246,27.182352941176468
14.333532810211182,-0.73779296875,0.63427734375,0.01220703125,1.6870229007633588,0.015267175572519083,-0.2366412213740458,27.182352941176468
14.369680881500244,-0.740234375,0.64306640625,0.010498046875,1.4274809160305344,0.37404580152671757,-1.717557251908397,27.182352941176468
14.406842708587646,-0.744384765625,0.6435546875,0.005126953125,1.5572519083969465,-0.20610687022900764,-0.05343511450381679,27.135294117647057
14.443120956420898,-0.738037109375,0.638916015625,0.019287109375,1.3893129770992367,0.32061068702290074,-1.7099236641221374,27.088235294117645
14.478398084640503,-0.7373046875,0.6357421875,0.011962890625,1.534351145038168,-0.015267175572519083,-0.8396946564885496,27.135294117647057
14.512975454330444,-0.73876953125,0.6396484375,0.003173828125,1.381679389312977,0.21374045801526717,-1.4580152671755726,27.182352941176468
14.547399759292603,-0.741943359375,0.638427734375,0.005615234375,1.6564885496183206,-0.366412213740458,-0.061068702290076333,27.182352941176468
14.581744194030762,-0.737060546875,0.641357421875,0.011962890625,1.4351145038167938,0.22900763358778625,-2.1374045801526718,27.22941176470588
14.616162538528442,-0.744873046875,0.640869140625,0.005615234375,1.5648854961832062,-0.030534351145038167,-0.366412213740458,27.135294117647057
14.652196884155273,-0.741943359375,0.63671875,0.00537109375,1.4122137404580153,0.03816793893129771,-1.2290076335877862,27.088235294117645
14.686707735061646,-0.744873046875,0.63720703125,0.009765625,1.5877862595419847,-0.12213740458015267,-0.7709923664122137,27.22941176470588
14.721026420593262,-0.740966796875,0.635986328125,0.0126953125,1.5954198473282444,0.0916030534351145,-1.618320610687023,27.135294117647057
14.757316827774048,-0.748046875,0.633544921875,0.001708984375,1.3587786259541985,0.2366412213740458,-0.9236641221374046,27.135294117647057
14.790199756622314,-0.74267578125,0.634033203125,0.005859375,1.717557251908397,-0.12213740458015267,-0.8320610687022901,27.088235294117645
14.8229398727417,-0.738525390625,0.6396484375,0.01318359375,1.3358778625954197,-0.22900763358778625,-0.2595419847328244,27.182352941176468
14.858864068984985,-0.741943359375,0.6328125,0.012939453125,1.5648854961832062,0.13740458015267176,-2.0839694656488548,27.323529411764707
14.892521619796753,-0.74072265625,0.638671875,0.01220703125,1.4274809160305344,-0.22137404580152673,-0.030534351145038167,27.182352941176468
14.929541110992432,-0.742919921875,0.637939453125,0.006591796875,1.5648854961832062,0.03816793893129771,-1.7251908396946565,27.276470588235295
14.968212127685547,-0.738525390625,0.64111328125,0.00341796875,1.618320610687023,-0.21374045801526717,-0.2824427480916031,27.22941176470588
15.005381345748901,-0.738525390625,0.642822265625,0.013916015625,1.4274809160305344,0.0,-1.7938931297709924,27.182352941176468
15.04291582107544,-0.73779296875,0.63818359375,0.010498046875,1.5419847328244274,-0.19083969465648856,-0.22137404580152673,27.182352941176468
15.080200910568237,-0.735107421875,0.642822265625,0.007080078125,1.3435114503816794,0.1984732824427481,-1.6946564885496183,27.135294117647057
15.116182327270508,-0.73828125,0.63671875,0.005615234375,1.6946564885496183,-0.10687022900763359,-0.2900763358778626,27.088235294117645
15.152568340301514,-0.735595703125,0.640625,0.0029296875,1.534351145038168,0.183206106870229,-1.5419847328244274,27.22941176470588
15.189459562301636,-0.746826171875,0.64453125,0.013671875,1.6488549618320612,-0.030534351145038167,-0.3969465648854962,27.135294117647057
15.22612476348877,-0.739501953125,0.64404296875,0.011474609375,1.366412213740458,0.12213740458015267,-1.4274809160305344,27.22941176470588
15.263951539993286,-0.7412109375,0.64404296875,0.012451171875,1.4274809160305344,-0.16793893129770993,-0.7938931297709924,27.276470588235295
15.302165746688843,-0.7353515625,0.644287109375,0.00927734375,1.4351145038167938,0.007633587786259542,-1.0,27.22941176470588
15.338851928710938,-0.742919921875,0.63818359375,0.006103515625,1.6412213740458015,0.09923664122137404,-1.2061068702290076,27.182352941176468
15.377256393432617,-0.739990234375,0.63720703125,0.010986328125,1.5419847328244274,0.09923664122137404,-0.7557251908396947,27.22941176470588
15.414953231811523,-0.734375,0.64208984375,0.005859375,1.5648854961832062,0.04580152671755725,-1.1908396946564885,27.135294117647057
15.452953100204468,-0.736083984375,0.639404296875,0.01513671875,1.5725190839694656,-0.05343511450381679,-0.9007633587786259,27.276470588235295
15.490177154541016,-0.738037109375,0.635986328125,0.021240234375,1.549618320610687,0.04580152671755725,-1.2290076335877862,27.22941176470588
15.528176069259644,-0.738037109375,0.634521484375,0.005126953125,1.450381679389313,-0.11450381679389313,-0.816793893129771,27.135294117647057
15.565908670425415,-0.736328125,0.640380859375,0.00927734375,1.5877862595419847,0.12213740458015267,-1.0534351145038168,27.182352941176468
15.603930950164795,-0.741455078125,0.636474609375,0.00830078125,1.3969465648854962,0.19083969465648856,-0.8320610687022901,27.135294117647057
15.641384601593018,-0.7392578125,0.639892578125,0.010009765625,1.6488549618320612,0.08396946564885496,-1.0687022900763359,27.323529411764707
15.679421186447144,-0.738525390625,0.64208984375,0.0068359375,1.5267175572519085,0.15267175572519084,-0.732824427480916,27.135294117647057
15.71679949760437,-0.73828125,0.637451171875,0.00439453125,1.534351145038168,-0.09923664122137404,-1.1755725190839694,27.182352941176468
15.75350308418274,-0.73681640625,0.637939453125,0.011474609375,1.4961832061068703,0.12213740458015267,-0.9389312977099237,27.088235294117645
15.791492700576782,-0.73876953125,0.640625,0.008056640625,1.5190839694656488,-0.07633587786259542,-1.1145038167938932,27.276470588235295
15.828202486038208,-0.734130859375,0.641845703125,0.0126953125,1.4351145038167938,-0.030534351145038167,-1.2366412213740459,27.088235294117645
15.863720417022705,-0.739501953125,0.64208984375,0.003173828125,1.534351145038168,0.0,-1.015267175572519,27.135294117647057
15.900103092193604,-0.743408203125,0.632568359375,0.00244140625,1.6870229007633588,0.0,-0.9694656488549618,27.276470588235295
15.93840479850769,-0.740966796875,0.642822265625,-0.00048828125,1.549618320610687,0.16793893129770993,-1.0610687022900764,27.088235294117645
15.975495338439941,-0.743896484375,0.6484375,0.0029296875,1.4198473282442747,0.07633587786259542,-1.0534351145038168,27.182352941176468
16.01153802871704,-0.73779296875,0.6396484375,0.009521484375,1.4732824427480915,-0.10687022900763359,-0.7786259541984732,27.088235294117645
16.049590587615967,-0.74072265625,0.64306640625,0.012939453125,1.6870229007633588,0.05343511450381679,-0.8244274809160306,27.182352941176468
16.08638596534729,-0.738037109375,0.641357421875,0.011962890625,1.4122137404580153,0.07633587786259542,-1.083969465648855,27.276470588235295
16.12558603286743,-0.742919921875,0.642333984375,0.005126953125,1.366412213740458,0.030534351145038167,-0.9847328244274809,27.182352941176468
16.160704374313354,-0.740966796875,0.64453125,0.01123046875,1.549618320610687,0.13740458015267176,-1.0763358778625953,27.22941176470588
16.195748805999756,-0.73681640625,0.64111328125,0.00732421875,1.4961832061068703,-0.0916030534351145,-1.2748091603053435,27.22941176470588
16.232903957366943,-0.739990234375,0.640380859375,0.01220703125,1.366412213740458,0.015267175572519083,-0.8244274809160306,27.182352941176468
16.271135330200195,-0.738525390625,0.640625,0.01220703125,1.4427480916030535,-0.16030534351145037,-0.8549618320610687,27.22941176470588
16.307846784591675,-0.740478515625,0.640869140625,0.00537109375,1.3969465648854962,0.183206106870229,-1.0610687022900764,27.276470588235295
16.346179485321045,-0.738525390625,0.6416015625,0.01708984375,1.5572519083969465,0.11450381679389313,-1.0076335877862594,27.182352941176468
16.382120609283447,-0.737548828125,0.638427734375,0.00927734375,1.4961832061068703,0.061068702290076333,-0.9236641221374046,27.276470588235295
16.418439388275146,-0.740234375,0.64208984375,0.004638671875,1.4198473282442747,-0.015267175572519083,-1.0687022900763359,27.22941176470588
16.453623294830322,-0.739501953125,0.639404296875,0.009033203125,1.3893129770992367,0.05343511450381679,-1.297709923664122,27.276470588235295
16.490161657333374,-0.736572265625,0.635009765625,0.013671875,1.4885496183206106,0.10687022900763359,-0.9465648854961832,27.276470588235295
16.526375770568848,-0.7421875,0.63330078125,-0.00048828125,1.4809160305343512,-0.06870229007633588,-0.916030534351145,27.182352941176468
16.563176155090332,-0.736083984375,0.64013671875,0.009765625,1.2900763358778626,0.015267175572519083,-1.0229007633587786,27.276470588235295
16.598787307739258,-0.7392578125,0.6376953125,0.009033203125,1.5114503816793894,0.03816793893129771,-0.8396946564885496,27.22941176470588
16.63546919822693,-0.741455078125,0.636474609375,0.004638671875,1.5954198473282444,-0.030534351145038167,-1.0687022900763359,27.182352941176468
16.672200202941895,-0.737060546875,0.63818359375,0.007080078125,1.4732824427480915,-0.04580152671755725,-1.1984732824427482,27.182352941176468
16.709911108016968,-0.737548828125,0.64501953125,0.01318359375,1.5954198473282444,0.030534351145038167,-1.083969465648855,27.22941176470588
16.744999408721924,-0.739013671875,0.63671875,0.010009765625,1.534351145038168,0.0,-1.015267175572519,27.323529411764707
16.779103994369507,-0.7392578125,0.63330078125,0.011962890625,1.5267175572519085,-0.030534351145038167,-1.0,27.22941176470588
16.81499695777893,-0.74560546875,0.638671875,0.009521484375,1.6030534351145038,-0.030534351145038167,-1.1068702290076335,27.182352941176468
16.85205388069153,-0.742431640625,0.643310546875,0.014404296875,1.3740458015267176,-0.07633587786259542,-1.0687022900763359,27.22941176470588
16.88779854774475,-0.73779296875,0.638671875,0.00146484375,1.549618320610687,0.03816793893129771,-1.0916030534351144,27.276470588235295
16.92296004295349,-0.739990234375,0.633544921875,0.003662109375,1.4809160305343512,0.12213740458015267,-0.8320610687022901,27.22941176470588
16.95857858657837,-0.7392578125,0.645263671875,0.01171875,1.4427480916030535,0.1297709923664122,-1.0305343511450382,27.182352941176468
16.99379277229309,-0.74169921875,0.64013671875,0.012939453125,1.4122137404580153,0.2595419847328244,-1.4732824427480915,27.182352941176468
17.03010058403015,-0.7392578125,0.63623046875,0.01171875,1.5267175572519085,0.10687022900763359,-0.7786259541984732,27.22941176470588
17.069551467895508,-0.739501953125,0.637939453125,0.0009765625,1.4351145038167938,0.15267175572519084,-1.2748091603053435,27.22941176470588
17.114442825317383,-0.735107421875,0.63916015625,0.005126953125,1.4580152671755726,-0.007633587786259542,-0.7404580152671756,27.182352941176468
17.15569806098938,-0.736572265625,0.63720703125,0.011962890625,1.4580152671755726,0.06870229007633588,-0.8854961832061069,27.22941176470588
17.194023609161377,-0.73876953125,0.637939453125,0.007568359375,1.5725190839694656,0.007633587786259542,-1.282442748091603,27.276470588235295
17.233600854873657,-0.736083984375,0.640625,-0.001220703125,1.4961832061068703,-0.10687022900763359,-0.8473282442748091,27.135294117647057
17.27282404899597,-0.743896484375,0.641357421875,0.00830078125,1.5572519083969465,-0.030534351145038167,-1.16793893129771,27.182352941176468
17.309186220169067,-0.734130859375,0.636962890625,0.00341796875,1.4045801526717556,0.05343511450381679,-0.6946564885496184,27.276470588235295
17.34574246406555,-0.73779296875,0.640380859375,0.0126953125,1.465648854961832,0.007633587786259542,-1.0381679389312977,27.276470588235295
17.38274645805359,-0.73486328125,0.642333984375,0.010009765625,1.4198473282442747,0.04580152671755725,-0.916030534351145,27.22941176470588
17.41899847984314,-0.7412109375,0.640380859375,0.009521484375,1.4885496183206106,0.09923664122137404,-1.3511450381679388,27.135294117647057
17.454983472824097,-0.740966796875,0.638671875,0.013427734375,1.6412213740458015,0.03816793893129771,-0.7404580152671756,27.182352941176468
17.491095066070557,-0.741455078125,0.638427734375,0.01123046875,1.534351145038168,0.25190839694656486,-1.2290076335877862,27.182352941176468
17.52553105354309,-0.737060546875,0.6435546875,-0.002685546875,1.366412213740458,-0.030534351145038167,-0.9083969465648855,27.276470588235295
17.56072688102722,-0.743896484375,0.638916015625,0.017822265625,1.6793893129770991,0.0916030534351145,-0.8778625954198473,27.22941176470588
17.596116542816162,-0.7392578125,0.637451171875,-0.00341796875,1.4580152671755726,0.10687022900763359,-0.8015267175572519,27.22941176470588
17.632767915725708,-0.740966796875,0.640625,0.015380859375,1.5038167938931297,0.08396946564885496,-1.2061068702290076,27.276470588235295
17.66928219795227,-0.739501953125,0.641357421875,0.007080078125,1.6641221374045803,0.007633587786259542,-0.7862595419847328,27.182352941176468
17.705727338790894,-0.740234375,0.64208984375,0.013671875,1.549618320610687,0.07633587786259542,-0.9694656488549618,27.323529411764707
17.74104905128479,-0.73876953125,0.644775390625,0.010986328125,1.6717557251908397,-0.061068702290076333,-0.7862595419847328,27.22941176470588
17.77793049812317,-0.739501953125,0.6396484375,0.010009765625,1.5114503816793894,0.10687022900763359,-1.4198473282442747,27.135294117647057
17.814626216888428,-0.74267578125,0.6416015625,0.003173828125,1.4351145038167938,-0.030534351145038167,-0.7480916030534351,27.323529411764707
17.851267099380493,-0.738525390625,0.641357421875,0.01318359375,1.366412213740458,0.11450381679389313,-1.0458015267175573,27.22941176470588
17.887380361557007,-0.73779296875,0.64306640625,0.014892578125,1.5572519083969465,-0.04580152671755725,-0.9694656488549618,27.22941176470588
17.923996925354004,-0.73828125,0.631103515625,0.012451171875,1.4809160305343512,0.10687022900763359,-1.1145038167938932,27.182352941176468
17.959428787231445,-0.7373046875,0.640625,0.008056640625,1.4580152671755726,0.0916030534351145,-1.0229007633587786,27.22941176470588
17.9966037273407,-0.737548828125,0.64794921875,0.01708984375,1.5038167938931297,-0.08396946564885496,-1.015267175572519,27.276470588235295
18.033934593200684,-0.739013671875,0.638671875,0.007080078125,1.5725190839694656,0.030534351145038167,-0.9389312977099237,27.323529411764707
18.068424463272095,-0.74560546875,0.64111328125,0.01611328125,1.4580152671755726,0.0,-1.0381679389312977,27.22941176470588
18.10518717765808,-0.738525390625,0.636474609375,0.0087890625,1.4045801526717556,-0.15267175572519084,-0.8931297709923665,27.135294117647057
18.142112970352173,-0.73974609375,0.637939453125,0.003173828125,1.534351145038168,-0.015267175572519083,-1.0916030534351144,27.22941176470588
18.178714275360107,-0.738525390625,0.637451171875,0.0029296875,1.4198473282442747,-0.07633587786259542,-0.732824427480916,27.22941176470588
18.214250326156616,-0.739501953125,0.63720703125,0.0048828125,1.633587786259542,0.06870229007633588,-0.9770992366412213,27.22941176470588
18.25148344039917,-0.7392578125,0.639404296875,0.009765625,1.4045801526717556,0.022900763358778626,-1.4885496183206106,27.323529411764707
18.288124561309814,-0.740234375,0.6376953125,0.005126953125,1.4580152671755726,-0.26717557251908397,-0.6183206106870229,27.276470588235295
18.323877096176147,-0.7373046875,0.640380859375,0.009765625,1.5419847328244274,0.183206106870229,-0.7557251908396947,27.182352941176468
18.35894513130188,-0.740234375,0.64111328125,0.01611328125,1.381679389312977,0.08396946564885496,-1.4045801526717556,27.276470588235295
18.3954074382782,-0.73876953125,0.63818359375,0.007080078125,1.4732824427480915,-0.04580152671755725,-0.5725190839694656,27.323529411764707
18.431395530700684,-0.739013671875,0.629150390625,0.005859375,1.4885496183206106,0.07633587786259542,-1.1984732824427482,27.22941176470588
18.468140125274658,-0.736328125,0.640380859375,0.002685546875,1.4580152671755726,0.15267175572519084,-1.1908396946564885,27.22941176470588
18.504907369613647,-0.74609375,0.637939453125,0.01123046875,1.717557251908397,0.09923664122137404,-0.6641221374045801,27.22941176470588
18.54155158996582,-0.736083984375,0.634765625,0.01318359375,1.4580152671755726,-0.07633587786259542,-0.8625954198473282,27.22941176470588
18.576313018798828,-0.736328125,0.644775390625,0.004150390625,1.4045801526717556,0.061068702290076333,-1.1068702290076335,27.182352941176468
18.612070083618164,-0.743408203125,0.64208984375,0.0126953125,1.5114503816793894,-0.22900763358778625,-0.5877862595419847,27.22941176470588
18.649017572402954,-0.74462890625,0.637939453125,0.010986328125,1.5267175572519085,0.11450381679389313,-1.1221374045801527,27.22941176470588
18.684457063674927,-0.7392578125,0.640380859375,0.005615234375,1.450381679389313,0.13740458015267176,-1.4198473282442747,27.22941176470588
18.721412420272827,-0.744873046875,0.64208984375,0.01416015625,1.465648854961832,0.0,-0.8091603053435115,27.276470588235295
18.75798988342285,-0.746337890625,0.644287109375,0.00927734375,1.4732824427480915,0.022900763358778626,-0.8396946564885496,27.276470588235295
18.794222593307495,-0.74072265625,0.638916015625,0.015625,1.4122137404580153,-0.022900763358778626,-1.1755725190839694,27.276470588235295
18.830851316452026,-0.738037109375,0.633056640625,0.005126953125,1.3587786259541985,-0.015267175572519083,-0.9618320610687023,27.276470588235295
18.865858554840088,-0.74169921875,0.640869140625,0.0087890625,1.4961832061068703,0.03816793893129771,-0.8396946564885496,27.182352941176468
18.900553464889526,-0.743896484375,0.638671875,0.013671875,1.3129770992366412,0.09923664122137404,-1.0381679389312977,27.182352941176468
18.93700408935547,-0.743896484375,0.64013671875,0.008056640625,1.534351145038168,-0.06870229007633588,-0.7480916030534351,27.276470588235295
18.97311782836914,-0.738525390625,0.6318359375,0.01708984375,1.4580152671755726,0.1450381679389313,-0.9847328244274809,27.22941176470588
19.009035348892212,-0.7373046875,0.635498046875,0.015869140625,1.5572519083969465,0.10687022900763359,-0.8854961832061069,27.22941176470588
19.046018838882446,-0.736083984375,0.6376953125,0.005859375,1.3587786259541985,-0.2366412213740458,-0.9465648854961832,27.276470588235295
19.082558155059814,-0.73876953125,0.644775390625,0.0107421875,1.4732824427480915,0.1297709923664122,-1.4732824427480915,27.22941176470588
19.11969828605652,-0.740478515625,0.6435546875,0.012939453125,1.6717557251908397,0.061068702290076333,-0.35877862595419846,27.22941176470588
19.15621519088745,-0.736328125,0.642822265625,0.003662109375,1.4351145038167938,-0.0916030534351145,-1.2061068702290076,27.22941176470588
19.192112922668457,-0.737548828125,0.6318359375,0.01025390625,1.3587786259541985,0.08396946564885496,-1.1526717557251909,27.22941176470588
19.227346658706665,-0.741943359375,0.638671875,0.01220703125,1.5801526717557253,0.10687022900763359,-0.7633587786259542,27.22941176470588
19.26311993598938,-0.738525390625,0.639404296875,0.014404296875,1.8015267175572518,0.29770992366412213,-0.48854961832061067,27.22941176470588
19.30017852783203,-0.736572265625,0.63720703125,0.003662109375,1.3358778625954197,0.5954198473282443,-1.984732824427481,27.182352941176468
19.335704803466797,-0.7431640625,0.634033203125,0.008544921875,1.7633587786259541,0.04580152671755725,-0.5419847328244275,27.22941176470588
19.371585369110107,-0.73291015625,0.639892578125,0.018310546875,1.5190839694656488,-0.061068702290076333,-0.7251908396946565,27.276470588235295
19.409902572631836,-0.737060546875,0.64208984375,0.005615234375,1.4885496183206106,0.366412213740458,-2.0839694656488548,27.276470588235295
19.450586318969727,-0.73876953125,0.635498046875,0.01025390625,1.5572519083969465,-0.37404580152671757,0.33587786259541985,27.22941176470588
19.488606691360474,-0.73681640625,0.638427734375,0.0078125,1.282442748091603,0.07633587786259542,-2.198473282442748,27.22941176470588
19.527534246444702,-0.74169921875,0.634521484375,0.005615234375,1.7251908396946565,-0.22900763358778625,-0.17557251908396945,27.22941176470588
19.5643630027771,-0.73583984375,0.635986328125,0.008544921875,1.534351145038168,0.03816793893129771,-1.251908396946565,27.22941176470588
19.600401878356934,-0.740966796875,0.642333984375,0.0068359375,1.4885496183206106,-0.07633587786259542,-0.8320610687022901,27.276470588235295
19.63624858856201,-0.73486328125,0.635009765625,0.010986328125,1.3435114503816794,0.17557251908396945,-1.4351145038167938,27.22941176470588
19.67257046699524,-0.74755859375,0.635498046875,0.01513671875,1.7328244274809161,-0.31297709923664124,-0.46564885496183206,27.182352941176468
19.709249258041382,-0.7294921875,0.638427734375,0.01318359375,1.4045801526717556,0.20610687022900764,-1.5267175572519085,27.22941176470588
19.7456476688385,-0.7412109375,0.639404296875,0.01123046875,1.5725190839694656,-0.2595419847328244,-0.7022900763358778,27.22941176470588
19.781726121902466,-0.736572265625,0.6435546875,0.009033203125,1.5038167938931297,-0.04580152671755725,-0.5801526717557252,27.323529411764707
19.818598985671997,-0.74169921875,0.63818359375,0.011962890625,1.5572519083969465,0.022900763358778626,-1.4274809160305344,27.182352941176468
19.854346752166748,-0.734375,0.6396484375,0.011962890625,1.366412213740458,0.022900763358778626,-1.0381679389312977,27.276470588235295
19.88997530937195,-0.740966796875,0.637451171875,0.0126953125,1.5648854961832062,-0.2595419847328244,-0.9083969465648855,27.135294117647057
19.926154851913452,-0.7353515625,0.642333984375,0.01025390625,1.3129770992366412,0.15267175572519084,-1.0687022900763359,27.323529411764707
19.961822509765625,-0.7451171875,0.63916015625,0.01025390625,1.5572519083969465,0.015267175572519083,-0.3893129770992366,27.22941176470588
19.998921155929565,-0.740478515625,0.6376953125,0.013427734375,1.6488549618320612,0.3816793893129771,-1.534351145038168,27.22941176470588
20.03577184677124,-0.739990234375,0.644287109375,0.013671875,1.6106870229007633,-0.2366412213740458,-0.17557251908396945,27.276470588235295
20.072566986083984,-0.733642578125,0.6435546875,0.009521484375,1.282442748091603,0.549618320610687,-2.1526717557251906,27.276470588235295
20.1086323261261,-0.74462890625,0.63720703125,0.001708984375,1.5114503816793894,0.13740458015267176,-0.16793893129770993,27.22941176470588
20.144426822662354,-0.744384765625,0.642822265625,0.00830078125,1.4885496183206106,0.3816793893129771,-1.7709923664122138,27.22941176470588
20.180861711502075,-0.74365234375,0.64453125,0.013916015625,1.4961832061068703,-0.22137404580152673,-0.42748091603053434,27.323529411764707
20.215796947479248,-0.74169921875,0.640625,0.012939453125,1.3129770992366412,0.1297709923664122,-1.5190839694656488,27.22941176470588
20.2504243850708,-0.739501953125,0.644775390625,0.005126953125,1.6488549618320612,-0.09923664122137404,-0.3969465648854962,27.323529411764707
20.28522777557373,-0.745361328125,0.645263671875,0.0048828125,1.3358778625954197,0.04580152671755725,-1.7633587786259541,27.276470588235295
20.320626258850098,-0.742431640625,0.635498046875,0.016845703125,1.7251908396946565,0.0,-0.5954198473282443,27.22941176470588
20.356423377990723,-0.739501953125,0.645751953125,0.0185546875,1.4198473282442747,0.21374045801526717,-1.2290076335877862,27.22941176470588
20.39220666885376,-0.739013671875,0.6357421875,0.003173828125,1.3893129770992367,-0.030534351145038167,-0.9847328244274809,27.323529411764707
20.429136514663696,-0.740234375,0.63916015625,0.010986328125,1.381679389312977,0.061068702290076333,-0.816793893129771,27.182352941176468
20.464282989501953,-0.743408203125,0.636474609375,0.01953125,1.5648854961832062,-0.03816793893129771,-0.8931297709923665,27.22941176470588
20.50142002105713,-0.737548828125,0.63818359375,0.01025390625,1.5572519083969465,0.12213740458015267,-1.2748091603053435,27.276470588235295
20.537046194076538,-0.737060546875,0.640625,0.012939453125,1.4122137404580153,0.015267175572519083,-0.7480916030534351,27.22941176470588
20.572784662246704,-0.73876953125,0.6328125,0.00390625,1.549618320610687,-0.05343511450381679,-1.0916030534351144,27.22941176470588
20.608834266662598,-0.738525390625,0.649658203125,-0.001708984375,1.465648854961832,0.09923664122137404,-1.0534351145038168,27.22941176470588
20.64508557319641,-0.7412109375,0.636474609375,0.014404296875,1.4198473282442747,0.061068702290076333,-0.9694656488549618,27.276470588235295
20.681415796279907,-0.738037109375,0.638427734375,0.00732421875,1.534351145038168,-0.07633587786259542,-0.7633587786259542,27.22941176470588
20.716893911361694,-0.74365234375,0.63525390625,0.003173828125,1.465648854961832,0.1450381679389313,-1.3587786259541985,27.22941176470588
20.75384497642517,-0.738525390625,0.636474609375,0.002197265625,1.4045801526717556,-0.16030534351145037,-0.8778625954198473,27.22941176470588
20.789665937423706,-0.737548828125,0.640869140625,0.00341796875,1.450381679389313,-0.03816793893129771,-0.916030534351145,27.22941176470588
20.82494831085205,-0.7392578125,0.64013671875,0.017578125,1.4885496183206106,0.16030534351145037,-1.1221374045801527,27.276470588235295
20.860607147216797,-0.73974609375,0.640869140625,0.008056640625,1.5801526717557253,-0.022900763358778626,-1.0458015267175573,27.182352941176468
20.894592761993408,-0.740234375,0.63818359375,0.007568359375,1.549618320610687,0.10687022900763359,-1.0381679389312977,27.22941176470588
20.92990517616272,-0.744140625,0.636962890625,0.007080078125,1.6030534351145038,-0.0916030534351145,-0.732824427480916,27.22941176470588
20.96564245223999,-0.74267578125,0.64111328125,0.009521484375,1.4122137404580153,0.08396946564885496,-1.1297709923664123,27.22941176470588
21.001782178878784,-0.73974609375,0.640869140625,0.0048828125,1.633587786259542,-0.007633587786259542,-0.8702290076335878,27.135294117647057
21.03827738761902,-0.737548828125,0.6396484375,0.021728515625,1.4351145038167938,-0.022900763358778626,-0.9465648854961832,27.276470588235295
21.074726343154907,-0.739501953125,0.639892578125,0.00927734375,1.5954198473282444,0.022900763358778626,-0.8320610687022901,27.276470588235295
21.110628843307495,-0.739013671875,0.640625,0.016357421875,1.3969465648854962,0.04580152671755725,-1.1450381679389312,27.182352941176468
21.14641809463501,-0.746337890625,0.64208984375,0.0048828125,1.4427480916030535,0.015267175572519083,-1.015267175572519,27.182352941176468
21.18109154701233,-0.739013671875,0.634521484375,0.00927734375,1.5114503816793894,-0.007633587786259542,-0.7099236641221374,27.276470588235295
21.21487069129944,-0.738525390625,0.6376953125,0.0048828125,1.4809160305343512,0.12213740458015267,-1.3435114503816794,27.276470588235295
21.250622987747192,-0.73779296875,0.641845703125,0.00927734375,1.4732824427480915,-0.08396946564885496,-0.9694656488549618,27.135294117647057
21.287100553512573,-0.739013671875,0.643798828125,0.012939453125,1.5038167938931297,-0.015267175572519083,-0.6259541984732825,27.182352941176468
21.322807788848877,-0.734130859375,0.64306640625,0.014404296875,1.5877862595419847,0.13740458015267176,-1.1297709923664123,27.22941176470588
21.358640432357788,-0.73828125,0.64501953125,0.008056640625,1.5648854961832062,0.12213740458015267,-1.3511450381679388,27.276470588235295
21.395370721817017,-0.740234375,0.635498046875,0.015625,1.5419847328244274,-0.03816793893129771,-0.25190839694656486,27.182352941176468
21.4311842918396,-0.73291015625,0.63623046875,0.010009765625,1.3740458015267176,0.007633587786259542,-1.1755725190839694,27.22941176470588
21.46864914894104,-0.7373046875,0.641357421875,0.01904296875,1.3969465648854962,0.08396946564885496,-1.0763358778625953,27.323529411764707
21.504131317138672,-0.73974609375,0.63525390625,0.007568359375,1.5190839694656488,0.16793893129770993,-1.1068702290076335,27.22941176470588
21.539615392684937,-0.7421875,0.635009765625,0.0029296875,1.5648854961832062,-0.03816793893129771,-0.37404580152671757,27.323529411764707
21.575597286224365,-0.73828125,0.642578125,0.0087890625,1.450381679389313,0.0916030534351145,-1.5648854961832062,27.182352941176468
21.61044192314148,-0.739501953125,0.63818359375,0.01611328125,1.4732824427480915,-0.007633587786259542,-0.8396946564885496,27.22941176470588
21.645398378372192,-0.7431640625,0.6337890625,0.013916015625,1.3435114503816794,0.13740458015267176,-1.0305343511450382,27.276470588235295
21.681609869003296,-0.737548828125,0.64013671875,0.007080078125,1.618320610687023,-0.007633587786259542,-0.648854961832061,27.22941176470588
21.718006372451782,-0.741455078125,0.6435546875,0.0166015625,1.4198473282442747,0.26717557251908397,-1.5190839694656488,27.276470588235295
21.753382921218872,-0.735595703125,0.635986328125,0.013427734375,1.4885496183206106,0.1297709923664122,-0.8091603053435115,27.323529411764707
21.79052424430847,-0.740966796875,0.638427734375,0.01220703125,1.5877862595419847,0.05343511450381679,-1.1145038167938932,27.276470588235295
21.826557159423828,-0.740234375,0.642822265625,0.01171875,1.6030534351145038,-0.24427480916030533,-0.6946564885496184,27.276470588235295
21.862199306488037,-0.743896484375,0.644287109375,0.02734375,1.3969465648854962,0.11450381679389313,-1.3282442748091603,27.182352941176468
21.897926092147827,-0.7421875,0.6435546875,0.009521484375,1.6030534351145038,0.04580152671755725,-0.8091603053435115,27.276470588235295
21.934423208236694,-0.737060546875,0.640380859375,0.00244140625,1.5190839694656488,0.0,-0.8091603053435115,27.323529411764707
21.970800638198853,-0.742919921875,0.639404296875,0.011962890625,1.5801526717557253,0.0,-0.9770992366412213,27.22941176470588
22.00757336616516,-0.738525390625,0.640869140625,0.005859375,1.5267175572519085,0.061068702290076333,-0.8778625954198473,27.22941176470588
22.044058322906494,-0.740966796875,0.638427734375,0.00830078125,1.465648854961832,0.17557251908396945,-1.3053435114503817,27.323529411764707
22.080512762069702,-0.743408203125,0.641845703125,0.007080078125,1.5190839694656488,0.15267175572519084,-0.8015267175572519,27.22941176470588
22.114563941955566,-0.738037109375,0.63916015625,0.0126953125,1.5725190839694656,-0.12213740458015267,-1.2900763358778626,27.135294117647057
22.14931297302246,-0.74365234375,0.63330078125,0.010009765625,1.3358778625954197,0.09923664122137404,-0.4732824427480916,27.276470588235295
22.18625569343567,-0.74072265625,0.64208984375,0.010009765625,1.450381679389313,0.04580152671755725,-1.0076335877862594,27.323529411764707
22.222673177719116,-0.7373046875,0.640625,0.005615234375,1.4198473282442747,0.183206106870229,-1.381679389312977,27.22941176470588
22.25808024406433,-0.7451171875,0.636474609375,0.011474609375,1.618320610687023,0.04580152671755725,-0.42748091603053434,27.323529411764707
22.29379391670227,-0.73779296875,0.6337890625,0.012451171875,1.5648854961832062,-0.10687022900763359,-0.916030534351145,27.323529411764707
22.332327842712402,-0.740478515625,0.6455078125,0.00732421875,1.4198473282442747,0.16793893129770993,-1.3435114503816794,27.323529411764707
22.36657953262329,-0.7421875,0.643798828125,0.0087890625,1.5114503816793894,0.07633587786259542,-0.9618320610687023,27.323529411764707
22.402692794799805,-0.743896484375,0.6396484375,0.01318359375,1.5572519083969465,-0.09923664122137404,-0.5572519083969466,27.182352941176468
22.439629554748535,-0.7373046875,0.638671875,0.01513671875,1.465648854961832,0.26717557251908397,-1.6641221374045803,27.276470588235295
22.476427793502808,-0.74267578125,0.635009765625,0.0029296875,1.4198473282442747,-0.030534351145038167,-0.7480916030534351,27.323529411764707
22.511892795562744,-0.7373046875,0.638671875,0.005859375,1.5877862595419847,-0.07633587786259542,-1.0229007633587786,27.182352941176468
22.547968864440918,-0.740478515625,0.641845703125,0.006103515625,1.4122137404580153,0.16030534351145037,-1.1068702290076335,27.22941176470588
22.584190368652344,-0.7392578125,0.63818359375,0.010498046875,1.4198473282442747,-0.030534351145038167,-0.9694656488549618,27.276470588235295
22.620566844940186,-0.739990234375,0.63720703125,0.008056640625,1.5725190839694656,0.11450381679389313,-0.9618320610687023,27.22941176470588
22.656886339187622,-0.7421875,0.643310546875,0.0166015625,1.549618320610687,-0.09923664122137404,-0.9389312977099237,27.22941176470588
22.691503524780273,-0.740234375,0.639892578125,0.005126953125,1.5038167938931297,0.07633587786259542,-1.2213740458015268,27.323529411764707
22.727280139923096,-0.743408203125,0.6416015625,0.015625,1.633587786259542,-0.030534351145038167,-0.8931297709923665,27.22941176470588
22.763685703277588,-0.7421875,0.63623046875,0.0048828125,1.5801526717557253,-0.022900763358778626,-0.7786259541984732,27.276470588235295
22.80001950263977,-0.73681640625,0.63623046875,0.013427734375,1.5954198473282444,0.12213740458015267,-1.2595419847328244,27.323529411764707
22.83620262145996,-0.74072265625,0.6396484375,0.011962890625,1.381679389312977,-0.061068702290076333,-0.8931297709923665,27.22941176470588
22.872759342193604,-0.742431640625,0.643310546875,0.01025390625,1.6641221374045803,-0.1297709923664122,-0.5267175572519084,27.22941176470588
22.908501625061035,-0.732177734375,0.639892578125,0.009521484375,1.3129770992366412,0.29770992366412213,-2.1068702290076335,27.323529411764707
22.94448184967041,-0.738525390625,0.637939453125,0.015869140625,1.465648854961832,0.07633587786259542,-0.3893129770992366,27.22941176470588
22.98050880432129,-0.737060546875,0.63916015625,0.011962890625,1.5725190839694656,-0.366412213740458,-0.25190839694656486,27.182352941176468
23.01602792739868,-0.736083984375,0.641845703125,0.021728515625,1.4885496183206106,0.183206106870229,-2.16793893129771,27.276470588235295
23.052680730819702,-0.74267578125,0.640380859375,0.001708984375,1.450381679389313,0.07633587786259542,-0.7938931297709924,27.370588235294118
23.088728427886963,-0.744384765625,0.637451171875,0.0048828125,1.6564885496183206,-0.030534351145038167,-0.24427480916030533,27.276470588235295
23.124327898025513,-0.74169921875,0.641845703125,0.01611328125,1.381679389312977,0.20610687022900764,-1.1755725190839694,27.276470588235295
23.160868406295776,-0.7431640625,0.63916015625,0.013916015625,1.4274809160305344,0.05343511450381679,-0.9389312977099237,27.135294117647057
23.196804523468018,-0.74267578125,0.643310546875,0.010009765625,1.4961832061068703,0.061068702290076333,-1.2213740458015268,27.182352941176468
23.288918256759644,-0.744384765625,0.635986328125,0.0068359375,1.6030534351145038,-0.061068702290076333,-0.7862595419847328,27.276470588235295
23.336941719055176,-0.738525390625,0.642822265625,0.013427734375,1.5038167938931297,0.15267175572519084,-0.9083969465648855,27.276470588235295
23.372959852218628,-0.740966796875,0.633544921875,0.006103515625,1.4427480916030535,0.15267175572519084,-1.251908396946565,27.276470588235295
23.409775018692017,-0.7431640625,0.6416015625,0.012451171875,1.5572519083969465,0.0916030534351145,-0.8015267175572519,27.276470588235295
23.445958137512207,-0.744873046875,0.642822265625,0.012451171875,1.6488549618320612,0.04580152671755725,-1.183206106870229,27.135294117647057
23.482699632644653,-0.7412109375,0.640380859375,0.00146484375,1.4580152671755726,0.1984732824427481,-0.9236641221374046,27.323529411764707
23.518638134002686,-0.73828125,0.63720703125,0.008544921875,1.465648854961832,-0.15267175572519084,-0.9923664122137404,27.323529411764707
23.554734706878662,-0.74169921875,0.637451171875,0.006103515625,1.5419847328244274,-0.007633587786259542,-1.0381679389312977,27.182352941176468
23.59142565727234,-0.739013671875,0.63720703125,0.01171875,1.4274809160305344,0.06870229007633588,-1.083969465648855,27.276470588235295
23.627859115600586,-0.7421875,0.645751953125,0.00634765625,1.5190839694656488,0.03816793893129771,-0.8320610687022901,27.323529411764707
23.66368532180786,-0.741455078125,0.637939453125,0.009521484375,1.4961832061068703,0.04580152671755725,-1.0,27.276470588235295
23.69970417022705,-0.74267578125,0.644775390625,0.00927734375,1.549618320610687,0.022900763358778626,-0.8549618320610687,27.323529411764707
23.735455989837646,-0.7373046875,0.6396484375,0.00732421875,1.4809160305343512,0.05343511450381679,-1.2366412213740459,27.323529411764707
23.771613359451294,-0.740966796875,0.635986328125,0.006103515625,1.5419847328244274,-0.08396946564885496,-0.7251908396946565,27.22941176470588
23.807432651519775,-0.73974609375,0.637451171875,0.010009765625,1.5419847328244274,-0.04580152671755725,-1.0458015267175573,27.323529411764707
23.843444347381592,-0.739013671875,0.64013671875,0.01513671875,1.4580152671755726,0.03816793893129771,-0.9694656488549618,27.276470588235295
23.880351066589355,-0.740478515625,0.642333984375,0.01171875,1.3893129770992367,0.11450381679389313,-1.083969465648855,27.323529411764707
23.91505002975464,-0.7451171875,0.640380859375,0.007568359375,1.5038167938931297,-0.05343511450381679,-0.5114503816793893,27.276470588235295
23.95109534263611,-0.74072265625,0.644775390625,0.015869140625,1.4732824427480915,0.0916030534351145,-1.3435114503816794,27.276470588235295
23.986250400543213,-0.740234375,0.63916015625,0.007568359375,1.3969465648854962,0.05343511450381679,-0.6946564885496184,27.22941176470588
24.022301197052002,-0.739501953125,0.6435546875,0.01123046875,1.465648854961832,0.3053435114503817,-1.3740458015267176,27.276470588235295
24.058233976364136,-0.73828125,0.640625,0.0107421875,1.4961832061068703,0.25190839694656486,-1.1755725190839694,27.323529411764707
24.09243869781494,-0.7451171875,0.640869140625,0.0166015625,1.534351145038168,-0.11450381679389313,-0.5801526717557252,27.276470588235295
24.127943992614746,-0.740478515625,0.6396484375,0.016357421875,1.5572519083969465,0.0916030534351145,-1.1221374045801527,27.22941176470588
24.163660049438477,-0.7353515625,0.640869140625,0.009765625,1.5114503816793894,0.1297709923664122,-1.3129770992366412,27.323529411764707
24.19897222518921,-0.738525390625,0.64013671875,0.009521484375,1.3511450381679388,0.11450381679389313,-1.0610687022900764,27.323529411764707
24.2349750995636,-0.737548828125,0.63623046875,0.008056640625,1.6259541984732824,-0.22137404580152673,-0.8778625954198473,27.370588235294118
24.27087092399597,-0.73828125,0.64013671875,0.021728515625,1.4961832061068703,-0.04580152671755725,-1.0076335877862594,27.182352941176468
24.305728435516357,-0.736572265625,0.6357421875,0.0107421875,1.5267175572519085,-0.08396946564885496,-1.099236641221374,27.22941176470588
24.342957973480225,-0.7412109375,0.640625,0.00732421875,1.3969465648854962,0.0,-1.1984732824427482,27.135294117647057
24.383988618850708,-0.739013671875,0.64501953125,0.008056640625,1.465648854961832,-0.0916030534351145,-1.2595419847328244,27.22941176470588
24.429596662521362,-0.733642578125,0.642822265625,0.007080078125,1.4885496183206106,-0.061068702290076333,-1.2671755725190839,27.276470588235295
24.467546463012695,-0.743896484375,0.644287109375,0.009521484375,1.450381679389313,-0.07633587786259542,-0.7099236641221374,27.22941176470588
24.503827810287476,-0.7373046875,0.642578125,0.00927734375,1.534351145038168,0.16793893129770993,-1.16793893129771,27.323529411764707
24.5432767868042,-0.7392578125,0.637939453125,0.00732421875,1.5725190839694656,-0.05343511450381679,-0.7557251908396947,27.41764705882353
24.581803798675537,-0.744384765625,0.63916015625,0.01171875,1.450381679389313,0.17557251908396945,-1.450381679389313,27.276470588235295
24.618036031723022,-0.740478515625,0.641357421875,0.014404296875,1.5877862595419847,0.0,-0.732824427480916,27.323529411764707
24.65377378463745,-0.7421875,0.63720703125,0.00146484375,1.4351145038167938,0.06870229007633588,-1.251908396946565,27.22941176470588
24.68954586982727,-0.736328125,0.640625,0.0068359375,1.465648854961832,0.11450381679389313,-1.1145038167938932,27.323529411764707
24.72578716278076,-0.742431640625,0.639892578125,0.011962890625,1.6488549618320612,0.06870229007633588,-0.732824427480916,27.323529411764707
24.762226581573486,-0.736083984375,0.640625,0.00634765625,1.465648854961832,0.007633587786259542,-0.9007633587786259,27.22941176470588
24.79714822769165,-0.7373046875,0.642822265625,0.00732421875,1.465648854961832,0.22137404580152673,-1.5038167938931297,27.182352941176468
24.833343505859375,-0.744140625,0.640380859375,0.008544921875,1.5114503816793894,-0.022900763358778626,-0.48091603053435117,27.323529411764707
24.87005639076233,-0.734619140625,0.64013671875,0.010009765625,1.5648854961832062,0.030534351145038167,-1.2213740458015268,27.276470588235295
24.906916856765747,-0.736328125,0.63916015625,0.006103515625,1.4274809160305344,-0.030534351145038167,-0.9312977099236641,27.276470588235295
24.94359302520752,-0.7451171875,0.635986328125,0.016845703125,1.6564885496183206,-0.061068702290076333,-0.9923664122137404,27.276470588235295
24.980491161346436,-0.74267578125,0.6337890625,0.012451171875,1.6641221374045803,-0.022900763358778626,-0.9694656488549618,27.22941176470588
25.015925884246826,-0.73876953125,0.648681640625,0.010986328125,1.5419847328244274,0.0916030534351145,-0.9389312977099237,27.22941176470588
25.052414894104004,-0.743896484375,0.64208984375,0.009765625,1.6030534351145038,-0.2595419847328244,-0.9312977099236641,27.22941176470588
25.088756322860718,-0.740478515625,0.64501953125,0.011474609375,1.5190839694656488,0.05343511450381679,-1.0763358778625953,27.370588235294118
25.12336778640747,-0.73974609375,0.639892578125,0.014892578125,1.4885496183206106,0.04580152671755725,-1.1297709923664123,27.22941176470588
25.16008996963501,-0.73583984375,0.63818359375,0.013427734375,1.4732824427480915,0.1984732824427481,-1.0458015267175573,27.276470588235295
25.196815013885498,-0.740478515625,0.64208984375,0.012451171875,1.4961832061068703,0.16793893129770993,-0.8244274809160306,27.182352941176468
25.23348832130432,-0.738525390625,0.638916015625,0.001953125,1.465648854961832,0.07633587786259542,-1.0687022900763359,27.182352941176468
25.269287586212158,-0.74169921875,0.639892578125,0.01318359375,1.5267175572519085,-0.08396946564885496,-0.4732824427480916,27.182352941176468
25.306864023208618,-0.735107421875,0.637451171875,0.01123046875,1.6259541984732824,0.08396946564885496,-1.3740458015267176,27.22941176470588
25.34387493133545,-0.741455078125,0.642333984375,0.01806640625,1.3587786259541985,0.10687022900763359,-1.1221374045801527,27.22941176470588
25.37990975379944,-0.74462890625,0.639404296875,0.009033203125,1.4885496183206106,0.030534351145038167,-0.7251908396946565,27.276470588235295
25.414832830429077,-0.73974609375,0.641845703125,0.002197265625,1.5114503816793894,-0.015267175572519083,-0.9083969465648855,27.22941176470588
25.451191663742065,-0.735107421875,0.64306640625,0.007568359375,1.4122137404580153,0.17557251908396945,-1.4809160305343512,27.135294117647057
25.487978219985962,-0.736328125,0.640625,0.009521484375,1.4885496183206106,-0.15267175572519084,-0.5267175572519084,27.323529411764707
25.523099660873413,-0.7412109375,0.63818359375,0.012939453125,1.549618320610687,0.17557251908396945,-1.1526717557251909,27.323529411764707
25.558554887771606,-0.739501953125,0.63916015625,0.002685546875,1.4885496183206106,0.022900763358778626,-1.0916030534351144,27.22941176470588
25.594863176345825,-0.74072265625,0.634521484375,0.012939453125,1.633587786259542,0.11450381679389313,-1.0534351145038168,27.323529411764707
25.631043434143066,-0.739013671875,0.63525390625,0.013427734375,1.4885496183206106,0.015267175572519083,-0.7786259541984732,27.276470588235295
25.66606855392456,-0.740966796875,0.634033203125,0.012939453125,1.5954198473282444,0.16030534351145037,-1.0687022900763359,27.276470588235295
25.70125126838684,-0.740478515625,0.63720703125,0.012451171875,1.5725190839694656,0.06870229007633588,-1.083969465648855,27.323529411764707
25.736221313476562,-0.73828125,0.638916015625,0.005126953125,1.5267175572519085,0.08396946564885496,-1.183206106870229,27.323529411764707
25.772936582565308,-0.736328125,0.635009765625,0.017333984375,1.4885496183206106,-0.015267175572519083,-1.0076335877862594,27.276470588235295
25.808543920516968,-0.73876953125,0.63671875,0.004638671875,1.3358778625954197,0.07633587786259542,-1.1068702290076335,27.323529411764707
25.84568214416504,-0.734619140625,0.63818359375,0.015869140625,1.6641221374045803,0.1984732824427481,-0.9770992366412213,27.22941176470588
25.879860639572144,-0.73681640625,0.639892578125,0.00439453125,1.5114503816793894,-0.015267175572519083,-1.0763358778625953,27.276470588235295
25.913727283477783,-0.744384765625,0.638671875,0.009765625,1.5267175572519085,0.0916030534351145,-1.0305343511450382,27.276470588235295
25.948554515838623,-0.7451171875,0.634765625,0.0068359375,1.3282442748091603,-0.0916030534351145,-0.9312977099236641,27.22941176470588
25.98459815979004,-0.734375,0.640625,0.007568359375,1.5038167938931297,0.11450381679389313,-0.9389312977099237,27.276470588235295
26.020816326141357,-0.7412109375,0.63818359375,0.014892578125,1.4351145038167938,0.03816793893129771,-1.0458015267175573,27.22941176470588
26.05766749382019,-0.73779296875,0.634765625,0.01220703125,1.6259541984732824,0.0,-1.0,27.276470588235295
26.094383239746094,-0.742919921875,0.64306640625,0.01416015625,1.534351145038168,-0.08396946564885496,-0.5801526717557252,27.22941176470588
26.13041043281555,-0.73974609375,0.64111328125,0.003662109375,1.5572519083969465,0.2366412213740458,-1.3282442748091603,27.276470588235295
26.16733431816101,-0.741455078125,0.635498046875,0.007080078125,1.3740458015267176,0.09923664122137404,-0.9083969465648855,27.22941176470588
26.203357934951782,-0.74560546875,0.642822265625,0.00634765625,1.5572519083969465,-0.030534351145038167,-0.7938931297709924,27.276470588235295
26.239697217941284,-0.733642578125,0.639892578125,0.00537109375,1.6259541984732824,0.03816793893129771,-0.8702290076335878,27.22941176470588
26.275726318359375,-0.73974609375,0.640380859375,0.006591796875,1.4732824427480915,0.0916030534351145,-1.2671755725190839,27.276470588235295
26.310400009155273,-0.738525390625,0.638671875,0.0009765625,1.5267175572519085,-0.16793893129770993,-0.5114503816793893,27.22941176470588
26.34714937210083,-0.736083984375,0.6396484375,0.011474609375,1.534351145038168,0.05343511450381679,-1.3511450381679388,27.276470588235295
26.383691787719727,-0.737060546875,0.636962890625,0.01416015625,1.4885496183206106,0.20610687022900764,-1.0076335877862594,27.323529411764707
26.420008659362793,-0.7392578125,0.63671875,0.01025390625,1.4885496183206106,0.007633587786259542,-0.9007633587786259,27.22941176470588
26.455850839614868,-0.737060546875,0.636962890625,0.007080078125,1.4885496183206106,0.0,-0.7480916030534351,27.370588235294118
26.492937088012695,-0.73876953125,0.640625,0.0205078125,1.633587786259542,0.1297709923664122,-1.3893129770992367,27.22941176470588
26.52774930000305,-0.734619140625,0.63818359375,-0.001220703125,1.4122137404580153,0.03816793893129771,-0.9236641221374046,27.370588235294118
26.5642249584198,-0.73974609375,0.633056640625,0.0078125,1.4427480916030535,-0.03816793893129771,-1.0305343511450382,27.22941176470588
26.599923849105835,-0.736572265625,0.64013671875,0.00732421875,1.4274809160305344,0.022900763358778626,-0.7022900763358778,27.276470588235295
26.635955333709717,-0.739013671875,0.6435546875,0.01025390625,1.534351145038168,-0.06870229007633588,-0.7862595419847328,27.323529411764707
26.671881437301636,-0.74169921875,0.643310546875,0.0087890625,1.5190839694656488,0.007633587786259542,-0.9847328244274809,27.276470588235295
26.708881855010986,-0.738525390625,0.642333984375,0.009033203125,1.3587786259541985,0.06870229007633588,-1.1526717557251909,27.323529411764707
26.743728399276733,-0.7373046875,0.641357421875,0.015380859375,1.4809160305343512,0.015267175572519083,-0.8244274809160306,27.22941176470588
26.77843475341797,-0.73974609375,0.640625,0.00634765625,1.4427480916030535,-0.1450381679389313,-0.8244274809160306,27.323529411764707
26.81825065612793,-0.73828125,0.639892578125,0.0078125,1.4961832061068703,-0.05343511450381679,-1.183206106870229,27.22941176470588
26.855592012405396,-0.73876953125,0.638671875,0.008056640625,1.4351145038167938,0.06870229007633588,-0.8625954198473282,27.370588235294118
26.891234397888184,-0.740234375,0.640869140625,0.01025390625,1.5419847328244274,0.12213740458015267,-1.015267175572519,27.370588235294118
26.927247762680054,-0.74365234375,0.639404296875,0.00634765625,1.5648854961832062,0.07633587786259542,-0.9007633587786259,27.323529411764707
26.96370029449463,-0.739013671875,0.64013671875,0.00341796875,1.4427480916030535,-0.015267175572519083,-1.2671755725190839,27.22941176470588
27.000380992889404,-0.742431640625,0.640380859375,0.0087890625,1.534351145038168,0.007633587786259542,-0.7709923664122137,27.323529411764707
27.035345315933228,-0.739501953125,0.642333984375,0.013916015625,1.450381679389313,0.03816793893129771,-0.9770992366412213,27.323529411764707
27.069321155548096,-0.73974609375,0.63330078125,0.0048828125,1.534351145038168,-0.03816793893129771,-1.083969465648855,27.276470588235295
27.10487723350525,-0.735595703125,0.638916015625,0.018798828125,1.381679389312977,0.183206106870229,-1.3435114503816794,27.323529411764707
27.141047716140747,-0.74560546875,0.645263671875,0.0068359375,1.5801526717557253,-0.1297709923664122,-0.46564885496183206,27.276470588235295
27.176228761672974,-0.741455078125,0.639892578125,0.00830078125,1.4274809160305344,0.10687022900763359,-1.3358778625954197,27.276470588235295
27.21189260482788,-0.74267578125,0.634033203125,0.0166015625,1.4351145038167938,0.09923664122137404,-1.1603053435114503,27.22941176470588
27.247105598449707,-0.74169921875,0.640869140625,0.017333984375,1.5114503816793894,-0.061068702290076333,-0.8244274809160306,27.22941176470588
27.282946825027466,-0.735595703125,0.63818359375,0.0126953125,1.5114503816793894,-0.1297709923664122,-0.8473282442748091,27.323529411764707
27.31934404373169,-0.734375,0.637939453125,0.000244140625,1.4198473282442747,0.20610687022900764,-1.5190839694656488,27.22941176470588
27.356196403503418,-0.74169921875,0.637939453125,0.0078125,1.465648854961832,0.04580152671755725,-0.3969465648854962,27.276470588235295
27.391820430755615,-0.739501953125,0.6357421875,0.007080078125,1.4885496183206106,-0.07633587786259542,-1.3358778625954197,27.276470588235295
27.432519912719727,-0.73779296875,0.64111328125,0.015625,1.633587786259542,0.04580152671755725,-0.4351145038167939,27.276470588235295
27.467123985290527,-0.7412109375,0.6416015625,0.009033203125,1.4351145038167938,0.06870229007633588,-1.2671755725190839,27.182352941176468
27.501463651657104,-0.7412109375,0.641357421875,0.0029296875,1.3893129770992367,0.07633587786259542,-1.450381679389313,27.276470588235295
27.537710905075073,-0.743408203125,0.63623046875,0.016357421875,1.534351145038168,0.07633587786259542,-0.48091603053435117,27.323529411764707
27.574265956878662,-0.736572265625,0.63623046875,0.008056640625,1.6793893129770991,-0.0916030534351145,-0.7557251908396947,27.22941176470588
27.609671115875244,-0.732666015625,0.641845703125,0.009033203125,1.4122137404580153,0.46564885496183206,-1.9618320610687023,27.323529411764707
27.644057750701904,-0.741943359375,0.639404296875,0.005126953125,1.534351145038168,-0.03816793893129771,-0.3893129770992366,27.22941176470588
27.680602312088013,-0.74169921875,0.641357421875,0.010009765625,1.5725190839694656,-0.15267175572519084,-0.9007633587786259,27.22941176470588
27.717071771621704,-0.73681640625,0.638671875,0.00927734375,1.5954198473282444,0.1297709923664122,-1.1221374045801527,27.323529411764707
27.752845287322998,-0.739990234375,0.634521484375,0.010009765625,1.3740458015267176,0.16030534351145037,-1.1603053435114503,27.276470588235295
27.790000438690186,-0.74365234375,0.636474609375,0.017578125,1.5954198473282444,0.022900763358778626,-0.7938931297709924,27.276470588235295
27.826239109039307,-0.735595703125,0.642578125,0.009765625,1.6564885496183206,-0.015267175572519083,-0.9465648854961832,27.22941176470588
27.861183166503906,-0.738525390625,0.637939453125,0.0078125,1.3893129770992367,0.09923664122137404,-1.1145038167938932,27.323529411764707
27.89835238456726,-0.742431640625,0.637451171875,0.0126953125,1.465648854961832,0.07633587786259542,-0.7709923664122137,27.22941176470588
27.93458104133606,-0.74267578125,0.64013671875,0.009521484375,1.5267175572519085,-0.08396946564885496,-0.7862595419847328,27.41764705882353
27.96981382369995,-0.736572265625,0.6337890625,0.007568359375,1.6259541984732824,0.12213740458015267,-1.2595419847328244,27.323529411764707
28.006337881088257,-0.7431640625,0.63818359375,0.008544921875,1.450381679389313,-0.05343511450381679,-0.9236641221374046,27.323529411764707
28.04223370552063,-0.7421875,0.640869140625,0.01220703125,1.6259541984732824,0.061068702290076333,-0.9083969465648855,27.323529411764707
28.078041553497314,-0.741455078125,0.639892578125,0.002685546875,1.4580152671755726,-0.061068702290076333,-1.1526717557251909,27.323529411764707
28.114577293395996,-0.740966796875,0.638427734375,0.010986328125,1.4351145038167938,0.06870229007633588,-0.732824427480916,27.323529411764707
28.15087127685547,-0.739501953125,0.638916015625,0.014404296875,1.618320610687023,-0.10687022900763359,-1.1526717557251909,27.323529411764707
28.185534954071045,-0.7412109375,0.638916015625,0.009521484375,1.381679389312977,0.1984732824427481,-1.1450381679389312,27.182352941176468
28.222166538238525,-0.746337890625,0.634521484375,0.005615234375,1.4427480916030535,-0.07633587786259542,-0.7557251908396947,27.135294117647057
28.25865411758423,-0.739501953125,0.642333984375,0.01220703125,1.3511450381679388,0.007633587786259542,-0.9847328244274809,27.22941176470588
28.29493260383606,-0.7373046875,0.63720703125,0.004150390625,1.5038167938931297,0.13740458015267176,-1.0610687022900764,27.323529411764707
28.33085584640503,-0.735595703125,0.639892578125,0.012451171875,1.5038167938931297,0.03816793893129771,-1.213740458015267,27.276470588235295
28.36727213859558,-0.73876953125,0.641845703125,0.00830078125,1.4961832061068703,-0.1297709923664122,-0.5419847328244275,27.22941176470588
28.402289628982544,-0.731201171875,0.63671875,0.004638671875,1.534351145038168,0.16030534351145037,-1.297709923664122,27.323529411764707
28.436764001846313,-0.738037109375,0.64306640625,0.005126953125,1.4427480916030535,0.0,-0.7633587786259542,27.370588235294118
28.47169852256775,-0.7373046875,0.639404296875,0.015869140625,1.4809160305343512,-0.030534351145038167,-1.0,27.22941176470588
28.5078444480896,-0.745849609375,0.642578125,0.01513671875,1.4961832061068703,0.05343511450381679,-0.9389312977099237,27.276470588235295
28.54439091682434,-0.73974609375,0.633056640625,0.009765625,1.3282442748091603,0.06870229007633588,-1.1908396946564885,27.22941176470588
28.580469846725464,-0.74169921875,0.635986328125,0.013671875,1.465648854961832,-0.16030534351145037,-0.6793893129770993,27.276470588235295
28.61650276184082,-0.7421875,0.64697265625,0.00927734375,1.3740458015267176,0.16793893129770993,-1.366412213740458,27.370588235294118
28.65256404876709,-0.7373046875,0.640625,0.007080078125,1.3358778625954197,0.13740458015267176,-1.083969465648855,27.323529411764707
28.68877935409546,-0.741455078125,0.638916015625,-0.00048828125,1.465648854961832,0.1297709923664122,-0.6564885496183206,27.370588235294118
28.723230123519897,-0.74560546875,0.64208984375,0.00537109375,1.4732824427480915,-0.19083969465648856,-0.48091603053435117,27.276470588235295
28.75947618484497,-0.740234375,0.638427734375,0.01025390625,1.3206106870229009,0.16030534351145037,-2.015267175572519,27.370588235294118
28.79479694366455,-0.737060546875,0.640625,0.002197265625,1.4122137404580153,-0.09923664122137404,-0.5572519083969466,27.276470588235295
28.8317813873291,-0.7421875,0.639404296875,0.00048828125,1.534351145038168,-0.007633587786259542,-0.4961832061068702,27.323529411764707
28.867485284805298,-0.738525390625,0.635986328125,0.0087890625,1.381679389312977,-0.022900763358778626,-1.1984732824427482,27.22941176470588
28.90304183959961,-0.740234375,0.634521484375,0.009521484375,1.465648854961832,-0.015267175572519083,-1.1526717557251909,27.323529411764707
28.93972659111023,-0.74169921875,0.6337890625,0.0107421875,1.5267175572519085,-0.07633587786259542,-0.6412213740458015,27.323529411764707
28.97523593902588,-0.739990234375,0.642333984375,0.00341796875,1.4809160305343512,0.10687022900763359,-1.1755725190839694,27.323529411764707
29.011069297790527,-0.7421875,0.642333984375,0.013671875,1.4732824427480915,0.061068702290076333,-0.9541984732824428,27.323529411764707
29.04671025276184,-0.74462890625,0.643310546875,0.00048828125,1.5038167938931297,-0.007633587786259542,-1.0305343511450382,27.22941176470588
29.082801342010498,-0.7451171875,0.633056640625,0.00732421875,1.4885496183206106,-0.030534351145038167,-0.8244274809160306,27.323529411764707
29.119147062301636,-0.740478515625,0.636962890625,0.0078125,1.4809160305343512,0.08396946564885496,-1.0763358778625953,27.22941176470588
29.155430555343628,-0.739501953125,0.637451171875,0.009765625,1.3206106870229009,0.022900763358778626,-0.7251908396946565,27.22941176470588
29.1913959980011,-0.744873046875,0.637939453125,0.00830078125,1.5572519083969465,-0.007633587786259542,-0.916030534351145,27.370588235294118
29.226365089416504,-0.740966796875,0.631591796875,0.0126953125,1.5648854961832062,0.0916030534351145,-1.1603053435114503,27.22941176470588
29.263447761535645,-0.7431640625,0.635009765625,0.0048828125,1.3358778625954197,0.2366412213740458,-1.2900763358778626,27.22941176470588
29.301384687423706,-0.738525390625,0.63916015625,0.010498046875,1.4351145038167938,0.1450381679389313,-0.6412213740458015,27.182352941176468
29.335733652114868,-0.7431640625,0.637939453125,0.015380859375,1.4580152671755726,-0.07633587786259542,-1.0458015267175573,27.323529411764707
29.3731369972229,-0.7412109375,0.64501953125,0.009765625,1.4198473282442747,0.09923664122137404,-1.0534351145038168,27.323529411764707
29.40861487388611,-0.73779296875,0.643798828125,0.007080078125,1.4122137404580153,0.007633587786259542,-0.9083969465648855,27.276470588235295
29.444602012634277,-0.7431640625,0.64306640625,0.0078125,1.618320610687023,0.007633587786259542,-0.816793893129771,27.276470588235295
29.481064081192017,-0.738525390625,0.637939453125,0.00927734375,1.4732824427480915,0.1984732824427481,-1.16793893129771,27.323529411764707
29.519110679626465,-0.742431640625,0.637451171875,0.013916015625,1.4122137404580153,0.06870229007633588,-1.0229007633587786,27.323529411764707
29.554646253585815,-0.7373046875,0.63916015625,0.013671875,1.4198473282442747,0.13740458015267176,-1.0381679389312977,27.276470588235295
29.59126114845276,-0.73974609375,0.635986328125,0.00830078125,1.3740458015267176,0.015267175572519083,-1.2748091603053435,27.323529411764707
29.626826763153076,-0.73828125,0.6357421875,0.010009765625,1.534351145038168,-0.06870229007633588,-0.8854961832061069,27.323529411764707
29.663119316101074,-0.739013671875,0.642822265625,0.01025390625,1.5267175572519085,-0.11450381679389313,-0.7022900763358778,27.323529411764707
29.699589014053345,-0.739990234375,0.63720703125,0.009765625,1.4580152671755726,0.183206106870229,-1.297709923664122,27.370588235294118
29.735423803329468,-0.737060546875,0.63818359375,0.016357421875,1.4732824427480915,0.061068702290076333,-0.8473282442748091,27.323529411764707
29.772454977035522,-0.739990234375,0.63916015625,0.0126953125,1.534351145038168,0.007633587786259542,-1.1450381679389312,27.276470588235295
29.810899019241333,-0.738037109375,0.640625,0.01123046875,1.4885496183206106,-0.05343511450381679,-0.8931297709923665,27.22941176470588
29.84701132774353,-0.739013671875,0.6416015625,0.01318359375,1.5038167938931297,0.1450381679389313,-1.0534351145038168,27.22941176470588
29.883055210113525,-0.744384765625,0.637451171875,0.013916015625,1.4351145038167938,-0.20610687022900764,-0.7709923664122137,27.276470588235295
29.91938304901123,-0.73876953125,0.640625,0.010498046875,1.4274809160305344,0.12213740458015267,-1.5038167938931297,27.276470588235295
29.955303192138672,-0.74169921875,0.640869140625,0.012939453125,1.5114503816793894,0.16030534351145037,-0.8091603053435115,27.276470588235295
29.990794897079468,-0.7373046875,0.64111328125,0.010986328125,1.6259541984732824,0.0916030534351145,-0.7862595419847328,27.276470588235295
30.028132915496826,-0.7373046875,0.635986328125,0.012939453125,1.5801526717557253,0.06870229007633588,-1.1526717557251909,27.276470588235295
30.063759088516235,-0.742919921875,0.638427734375,0.01708984375,1.5038167938931297,0.061068702290076333,-1.0305343511450382,27.323529411764707
30.100886583328247,-0.742431640625,0.638671875,0.015869140625,1.5648854961832062,0.07633587786259542,-1.0534351145038168,27.323529411764707
30.136589288711548,-0.7421875,0.63671875,0.009033203125,1.450381679389313,0.06870229007633588,-1.1603053435114503,27.370588235294118
30.172446966171265,-0.741943359375,0.64404296875,0.010009765625,1.4732824427480915,0.16030534351145037,-0.9923664122137404,27.276470588235295
30.207314014434814,-0.739013671875,0.638671875,0.0087890625,1.381679389312977,0.16793893129770993,-1.0687022900763359,27.22941176470588
30.241811513900757,-0.743896484375,0.63330078125,0.014892578125,1.534351145038168,-0.0916030534351145,-0.9923664122137404,27.323529411764707
30.277575254440308,-0.73974609375,0.636962890625,0.003662109375,1.549618320610687,0.11450381679389313,-1.015267175572519,27.22941176470588
30.313852071762085,-0.744873046875,0.63525390625,0.008056640625,1.4961832061068703,-0.007633587786259542,-0.9389312977099237,27.370588235294118
30.350816249847412,-0.73974609375,0.635986328125,0.01025390625,1.534351145038168,0.030534351145038167,-0.8702290076335878,27.276470588235295
30.386852264404297,-0.735107421875,0.6376953125,0.00341796875,1.5572519083969465,0.030534351145038167,-1.3511450381679388,27.22941176470588
30.422906160354614,-0.7431640625,0.640380859375,0.005859375,1.3969465648854962,-0.03816793893129771,-0.7709923664122137,27.370588235294118
30.460479497909546,-0.739501953125,0.6357421875,0.00439453125,1.6564885496183206,0.007633587786259542,-0.9083969465648855,27.276470588235295
30.49633026123047,-0.742919921875,0.64501953125,0.011962890625,1.4809160305343512,0.015267175572519083,-1.0,27.323529411764707
30.534025192260742,-0.73779296875,0.63818359375,0.01416015625,1.3893129770992367,0.21374045801526717,-1.4885496183206106,27.276470588235295
30.57038640975952,-0.744140625,0.63623046875,0.00830078125,1.4809160305343512,-0.0916030534351145,-0.4351145038167939,27.370588235294118
30.606086015701294,-0.739501953125,0.637939453125,0.0048828125,1.366412213740458,0.1450381679389313,-1.3358778625954197,27.22941176470588
30.64228320121765,-0.7392578125,0.637939453125,0.021484375,1.3893129770992367,0.09923664122137404,-0.9694656488549618,27.323529411764707
30.678035974502563,-0.74365234375,0.641357421875,0.007080078125,1.6412213740458015,-0.022900763358778626,-0.7633587786259542,27.276470588235295
30.71347713470459,-0.7412109375,0.6435546875,0.017333984375,1.450381679389313,0.08396946564885496,-0.9465648854961832,27.22941176470588
30.749306201934814,-0.736572265625,0.63916015625,0.017333984375,1.6030534351145038,0.2595419847328244,-1.3129770992366412,27.22941176470588
30.786221027374268,-0.739990234375,0.640625,0.01123046875,1.633587786259542,-0.06870229007633588,-0.3969465648854962,27.22941176470588
30.822442293167114,-0.7451171875,0.642822265625,0.003173828125,1.5419847328244274,0.16030534351145037,-1.0229007633587786,27.323529411764707
30.859464645385742,-0.7353515625,0.631591796875,0.012451171875,1.465648854961832,0.04580152671755725,-1.1068702290076335,27.276470588235295
30.89419960975647,-0.739013671875,0.639404296875,0.01318359375,1.5572519083969465,0.022900763358778626,-0.9541984732824428,27.276470588235295
30.927802085876465,-0.74072265625,0.64111328125,0.0087890625,1.4122137404580153,0.04580152671755725,-1.0076335877862594,27.276470588235295
30.962973594665527,-0.737548828125,0.638671875,0.007568359375,1.5725190839694656,0.05343511450381679,-0.4961832061068702,27.276470588235295
30.998773336410522,-0.739990234375,0.640380859375,0.005859375,1.4122137404580153,0.20610687022900764,-1.3282442748091603,27.323529411764707
31.03407573699951,-0.739501953125,0.64306640625,0.01416015625,1.4045801526717556,0.04580152671755725,-1.0381679389312977,27.276470588235295
31.070305585861206,-0.738037109375,0.64111328125,0.015869140625,1.4198473282442747,0.03816793893129771,-1.0381679389312977,27.323529411764707
31.106102228164673,-0.73779296875,0.63916015625,0.00537109375,1.4961832061068703,-0.06870229007633588,-0.40458015267175573,27.323529411764707
31.1404390335083,-0.7373046875,0.640625,0.009521484375,1.4198473282442747,0.12213740458015267,-1.6641221374045803,27.323529411764707
31.17403817176819,-0.741943359375,0.641845703125,0.008056640625,1.4885496183206106,0.12213740458015267,-0.366412213740458,27.276470588235295
31.20972514152527,-0.74365234375,0.63623046875,0.0185546875,1.5267175572519085,0.061068702290076333,-1.4427480916030535,27.370588235294118
31.245781421661377,-0.739990234375,0.63818359375,0.018798828125,1.366412213740458,0.022900763358778626,-0.6717557251908397,27.276470588235295
31.282227516174316,-0.73779296875,0.63623046875,0.001953125,1.618320610687023,0.1984732824427481,-1.2900763358778626,27.323529411764707
31.319072008132935,-0.7421875,0.63916015625,0.0048828125,1.5038167938931297,-0.09923664122137404,-0.5648854961832062,27.323529411764707
31.354759693145752,-0.74169921875,0.64208984375,0.014404296875,1.5572519083969465,0.11450381679389313,-1.3129770992366412,27.370588235294118
31.39056396484375,-0.740966796875,0.64013671875,0.009765625,1.5648854961832062,0.0916030534351145,-0.7480916030534351,27.22941176470588
31.42755103111267,-0.7412109375,0.637451171875,0.017822265625,1.5038167938931297,0.0916030534351145,-1.3587786259541985,27.276470588235295
31.46359634399414,-0.747314453125,0.648193359375,0.006103515625,1.5190839694656488,-0.007633587786259542,-0.6870229007633588,27.323529411764707
31.50026535987854,-0.742431640625,0.641845703125,0.0078125,1.3435114503816794,0.1984732824427481,-1.4427480916030535,27.22941176470588
31.53536367416382,-0.742431640625,0.635986328125,0.018310546875,1.4427480916030535,-0.15267175572519084,-0.6335877862595419,27.276470588235295
